ACC_X,ACC_Y,ACC_Z,GY_X,GY_Y,GY_Z
510,-1379,14814,-961,-313,-417
510,20,14798,-929,-309,-329
765,-773,14328,-1017,-303,-389
1020,-686,14814,-945,-339,-355
510,-299,14551,-929,-327,-335
240,-1276,14575,-973,-261,-327
-327,-1009,15085,-953,-341,-319
-642,-335,14316,-969,-275,-419
510,-690,15101,-981,-293,-345
765,-781,14300,-969,-273,-341
765,255,14806,-881,-363,-345
132,510,14814,-953,-263,-333
212,-343,14535,-989,-311,-379
510,-1092,14838,-953,-261,-369
1020,-893,15077,-961,-265,-317
510,-710,14567,-981,-307,-359
-1052,-550,14814,-913,-317,-357
144,-359,14846,-1005,-387,-321
255,24,15061,-993,-331,-363
255,-758,14551,-969,-399,-361
510,-773,14543,-933,-347,-351
765,-550,15348,-933,-285,-329
-722,-682,15077,-901,3,-399
510,-997,15085,-941,-345,-351
16,-1180,14559,-973,-305,-365
216,-945,14583,-913,-293,-351
1279,-1443,15575,-961,26,-333
24,-1562,14535,-921,-331,-363
510,-1252,14296,-929,-351,-317
1279,-961,14583,-865,-281,-347
255,-379,15093,-913,-331,-351
255,-993,14567,-969,-343,-325
510,-1076,14559,-897,-373,-313
510,-1092,14559,-909,-351,-265
510,248,14822,-909,-333,-347
765,255,14814,-977,-369,-383
1020,-1036,14806,-977,-301,-393
765,-849,14822,-929,-271,-317
255,-423,14284,-977,-381,-355
765,765,15061,-1009,-367,-385
80,140,15348,-949,-345,-321
140,-263,14551,-917,-367,-359
765,196,14830,-965,-293,-395
-475,-419,14073,-989,-339,-399
255,-1283,15053,-929,-357,-363
255,255,14591,-973,-303,-313
255,-1052,15053,-1026,-385,-343
-407,-1052,15077,-913,-377,-391
765,-626,14790,-941,-355,-345
-407,-973,14073,-945,-375,-383
255,-921,14567,-905,50,-373
208,-1268,15053,-981,-401,-303
-267,140,15101,-893,-291,-341
255,510,15101,-909,-351,-349
72,220,14591,-901,-351,-343
765,24,14583,-985,-329,-335
510,-945,14559,-921,-379,-393
4,104,14822,-933,-287,-395
510,255,15101,-917,-379,-337
255,-734,14312,-909,26,-335
-347,-925,15053,-977,-359,-325
1020,-1076,14814,-993,-297,-319
-323,-407,14790,-913,-321,-325
255,92,14575,-993,-261,-307
-299,-443,14806,-985,-363,-339
132,-379,14567,-933,-315,-345
1020,164,14029,-933,-273,-369
255,-750,14806,-953,-423,-339
510,-1180,14846,-945,-347,-385
-499,-750,14567,-893,-379,-317
255,-698,14583,-913,-307,-367
76,-766,15069,-909,-393,-333
-1307,-622,14591,-897,-343,-339
255,-1164,14830,-929,1,-327
108,-829,14045,-901,11,-345
228,-403,14280,-897,-281,-319
255,255,14814,-941,-349,-333
-403,-526,14583,-905,-371,-341
1020,-307,14790,-953,-387,-339
765,-953,14551,-989,-315,-465
1275,-415,15053,-981,5,-343
248,-618,14814,-961,-311,-371
510,-343,15348,-933,-389,-287
1020,-646,14567,-869,-323,-333
255,-431,14806,-1013,-287,-279
28,12,15061,-897,-317,-327
-742,156,15324,-989,-297,-365
1020,-335,14591,-937,-309,-427
1020,-722,15077,-925,-281,-387
765,-865,14575,-901,-311,-359
510,-387,15093,-953,-325,-349
252,-383,15077,-953,-365,-315
255,-1363,14830,-1013,-341,-333
765,-1132,15045,-917,-311,-387
255,-1499,14543,-981,-353,-325
52,-622,14312,-937,-297,-379
-291,-698,15061,-957,-335,-369
255,116,14284,-873,-383,-329
255,-1299,14806,-969,-321,-311
255,255,14790,-881,-273,-333
255,255,14790,-881,-273,-305
236,255,14790,-989,-333,-305
248,-271,14535,-969,-353,-339
108,-766,14830,-957,-353,-355
255,-865,14583,-873,-309,-419
228,-1036,15101,-937,-347,-335
255,-550,15069,-949,-337,-381
510,-797,14830,-933,-393,-381
255,52,14790,-905,-325,-335
765,12,14814,-1005,-307,-389
52,-1132,14567,-945,-281,-341
255,255,14535,-1001,-315,-345
-347,-1140,14591,-821,-339,-317
510,-877,14822,-957,32,-325
510,-602,14543,-981,-339,-373
-311,-1084,14535,-953,-373,-379
1279,-407,13770,-905,-359,-371
1020,-853,14535,-897,-319,-309
1279,-1244,14328,-913,-335,-383
510,-511,14284,-861,-359,-373
-606,-801,15101,-861,-365,-361
-522,-1001,14284,-961,-257,-277
765,-766,15085,-989,-399,-367
255,-793,14591,-933,-433,-379
510,236,14822,-921,-329,-373
510,-319,15045,-949,-267,2
255,-467,14559,-961,-291,-361
765,-706,14567,-985,-327,-347
510,-1036,14838,-985,-299,-309
510,510,15093,-921,-301,-413
255,255,14296,-965,-341,-423
112,-714,15101,-945,-339,-357
-777,-626,14806,-925,29,-327
8,-1315,15356,-985,-297,-329
20,-1100,14814,-981,-357,-359
765,-893,15332,-993,-351,-365
765,-1291,14559,-909,-309,-317
-291,-849,14567,-901,-457,-331
1020,-734,15332,-1001,-281,-343
255,-1084,15101,-901,-289,-317
255,-670,14559,-941,-293,-287
510,208,14575,-985,-339,-403
255,-857,14535,-905,-381,-341
510,-1052,14567,-953,-261,-359
255,-626,14296,-929,-371,-287
510,-574,15093,-953,-265,-363
765,-1196,14822,-969,-329,-331
510,-945,14790,-937,-349,-393
255,-642,14543,-933,-393,-299
-347,-395,15069,-953,6,-373
765,48,14822,-897,-429,-313
510,255,14045,-993,-363,-365
1020,-295,15101,-889,-331,-325
510,-1156,14300,-1044,-331,-379
255,-315,14328,-965,-327,-365
765,-853,14806,-997,-315,-311
-275,-423,15053,-905,-267,-333
1020,-897,14583,-933,-299,-403
255,-1001,14830,-893,-303,-335
510,-327,14822,-981,-345,-407
510,-985,14814,-925,-301,-359
765,-582,14790,-913,-269,-341
255,-686,14806,-909,-373,-367
164,-901,14575,-941,-327,-379
-303,-877,14583,-937,-383,-339
510,40,14822,-941,-307,-267
510,-387,14535,-933,-295,-267
510,-387,14535,-933,-295,-335
255,128,14551,-857,-345,-359
252,-642,15053,-949,-371,-289
765,184,14328,-885,-375,-327
8,-303,15093,-981,-339,-411
510,-694,14846,-1001,-283,-375
80,16,14806,-933,-421,-333
-606,-973,13770,-901,-303,-371
232,-546,14575,-993,-309,-355
510,-694,14790,-965,-299,-385
255,-861,15053,-905,-281,-359
255,-451,14846,-969,-317,-269
510,12,15340,-913,-369,-365
255,-455,15077,-977,-307,-369
196,-678,14814,-1001,-279,-355
255,-1260,14790,-865,-413,-391
510,-785,15053,-937,-301,-313
765,-1092,14790,-949,-405,-407
510,-602,14806,-877,-315,-349
765,-339,14798,-973,-385,-355
255,-351,15085,-913,-295,-339
196,48,14583,-921,-363,-371
-347,-686,14073,-965,-321,-335
40,-829,15101,-1013,-355,-361
-514,-295,14806,-925,-263,-383
1020,-750,14790,-921,-357,-341
765,-1244,15053,-961,-391,-341
510,-562,15053,-977,-369,-329
765,-1148,14280,-933,-261,-319
255,-1236,14838,-977,-301,-321
1020,-762,15061,-993,-323,-343
510,-582,14535,-961,-295,-361
196,255,15069,-1009,-335,-401
765,510,14790,-893,-303,-339
765,-479,14332,-921,-315,-361
255,-367,15324,-969,-353,-367
200,-865,14838,-925,1,-383
-399,-762,15053,-1013,-315,-377
765,-1108,14830,-861,-329,-327
244,-263,15077,-933,-343,-337
-511,48,14332,-941,-319,-355
765,-530,14806,-957,-289,-349
255,128,14583,-965,-351,-323
216,-511,14814,-933,-297,-399
255,-511,15069,-865,-377,-351
1279,-483,14806,-909,-305,-297
255,-343,14838,-845,-421,-341
255,-1260,14814,-917,-281,-339
255,-1260,14814,-917,-281,-375
-283,-483,14814,-1028,-341,-375
-443,-522,14559,-905,6,-353
255,-758,15061,-957,-321,-351
255,-813,14846,-917,-315,-347
765,-534,14535,-977,-389,-371
510,-686,14798,-1009,-371,-333
255,-347,15316,-913,-357,-415
510,-690,14575,-949,-325,-375
255,-1028,14591,-953,-327,-347
255,-857,14591,-917,-339,-377
510,244,14838,-985,-265,-371
765,68,14284,-937,-283,-323
255,-1148,14838,-929,-315,-299
1020,-654,14575,-897,-367,-323
255,-1132,14559,-993,-353,-409
255,136,14583,-1026,13,-357
255,-1212,15053,-893,-323,-321
1020,-431,14559,-909,-297,-365
255,-1100,14846,-997,-295,-339
-586,-1068,14551,-817,-333,-357
510,220,15085,-933,-327,-355
765,-937,14045,-1005,-293,-315
80,-618,14814,-917,-319,-331
765,510,14280,-861,-335,-341
765,-626,14332,-889,-427,-359
156,-845,14535,-961,-315,-297
510,-455,14591,-921,-357,-265
-917,-574,15093,-937,-383,-369
120,-833,14583,-961,-327,-367
510,-1132,14535,-889,-393,-351
765,-363,15324,-921,-299,-343
188,-307,14535,-925,-365,-321
1020,-1036,14332,-917,-287,-381
112,-1339,14846,-933,-289,-319
216,-590,15093,-941,-291,-355
510,510,14806,-957,-349,-381
192,-495,15085,-1005,-343,-383
255,-514,14830,-953,-317,-375
510,96,14790,-933,-303,-331
510,-893,15077,-929,-317,-305
-522,-602,15053,-957,-333,-429
-447,-929,14583,-961,-277,-375
-614,16,14838,-937,-369,-319
510,-698,14300,-945,-431,-341
136,-678,14830,-881,-351,-337
765,-1331,14806,-921,-331,-343
-538,236,14332,-893,-401,-395
108,84,15069,-921,-305,-351
60,255,14535,-917,-325,-307
1020,-726,14806,-965,-323,-363
255,0,14559,-961,-257,-331
255,-415,14798,-985,-331,-351
255,510,14559,-969,-375,-313
255,-1252,14316,-917,-289,-395
255,-885,14551,-993,-351,-319
255,-845,14284,-957,-269,-427
510,510,14535,-985,-299,-349
184,144,14798,-913,-329,-357
188,-674,14316,-1001,-403,-403
1020,-1857,14790,-961,-367,-339
510,255,14798,-953,-347,-379
765,104,14575,-941,-305,-339
510,-1339,14543,-985,-263,-361
255,-443,15053,-933,-337,-393
510,-825,14535,-893,-303,-327
255,-933,15077,-1017,-273,-395
255,-933,15077,-1017,-273,-385
255,-507,15061,-961,-355,-335
510,-889,15101,-945,-267,-387
510,-801,14567,-941,-361,-343
510,-801,14567,-941,-361,-347
510,-750,14575,-977,-325,-311
60,-530,14575,-969,-285,-277
60,-1092,15053,-945,-409,-353
255,-1371,14575,-957,-267,-389
510,-1140,14822,-925,-301,-305
255,-431,15061,-929,-291,-357
255,44,14846,-909,-259,-293
-275,-287,14543,-953,-307,-313
1020,255,15077,-949,-379,-301
168,-1523,14332,-929,-287,-345
255,-742,13802,-909,-331,-335
765,-714,15101,-965,-303,-371
510,76,15069,-933,-341,-361
510,255,14535,-929,-353,-297
255,-530,15045,-909,-359,-389
255,-459,15101,-977,-313,-313
255,172,14822,-929,-393,-363
255,136,14296,-949,-285,-283
765,-809,14830,-917,-319,-313
-570,-530,14814,-965,-353,-331
510,-750,14312,-945,-279,-369
-638,-343,14073,-933,1,-351
255,-662,15045,-993,-355,-341
765,-299,15045,-937,-327,-387
510,255,14591,-977,-279,-331
255,-1132,14830,-897,-389,-325
-447,-1052,14814,-961,41,-385
56,-969,15061,-953,-299,-347
1020,-993,15101,-917,-291,-351
255,255,14806,-901,-269,1
-730,76,14822,-941,-277,-345
-339,-594,14822,-933,-365,-333
255,-1108,14300,-1021,-319,-361
510,-467,15300,-957,-295,-393
36,76,14543,-909,-319,-353
160,-586,14296,-957,-401,-375
-467,-530,14543,-961,-371,-315
1020,255,14328,-1025,-347,-375
-1204,24,15045,-885,-327,-353
255,-1021,14798,-929,-335,-329
255,510,14280,-937,-301,-367
255,176,14838,-849,-277,-377
-379,-1268,14316,-957,-357,-315
510,-1435,15356,-977,-403,-363
255,-339,14814,-929,-301,-335
510,-1068,14798,-977,-335,-395
255,-961,15053,-937,-345,-343
510,-726,14551,-989,-361,-331
-487,-1515,15077,-973,-373,-333
-646,-714,14543,-921,-309,-291
255,-379,14551,-957,-397,-333
765,-766,14551,-921,-301,-341
765,-1076,14798,-973,-285,-363
255,-395,14559,-929,-331,-319
255,-562,14822,-961,-265,-395
765,120,15607,-957,-301,-403
-969,88,15069,-969,-367,-325
255,-447,15308,-945,-317,-315
-475,510,14543,-937,-309,-349
255,-395,15045,-933,-315,-325
510,-606,15101,-917,34,-347
765,-1299,14025,-981,-285,-335
255,255,14057,-889,-283,-365
765,-590,15061,-973,-299,-333
72,-1435,14543,-941,-321,-429
255,-407,15356,-949,-345,-397
510,-411,14846,-989,-347,-331
-447,-845,15093,-961,-275,-319
510,-1204,15300,-941,-369,-369
255,224,14790,-1017,-411,-313
510,-1339,14575,-969,-285,-369
510,48,14846,-965,-375,-311
-554,-610,14583,-957,-295,-349
255,-1196,14583,-953,-355,-327
510,-307,14575,-989,-283,-297
255,-431,14284,-965,-325,-329
252,-331,14846,-893,-391,-333
510,-614,14575,-945,-295,-353
140,-754,14575,-949,-309,-327
255,-706,14806,-921,-309,-299
510,-467,14591,-913,-321,-359
510,-331,14798,-945,-365,-359
765,-590,14591,-925,-303,-331
-351,-267,14559,-905,-321,-357
255,255,14790,-857,-309,-321
196,52,14846,-901,-265,-387
255,-387,14543,-933,-321,-381
765,-726,14838,-929,-369,-347
765,-435,14280,-873,-309,-271
510,-618,14790,-985,-323,-373
1020,136,14822,-925,-387,-321
510,-762,14312,-913,-347,-321
765,-801,14559,-937,-319,-323
248,-371,14846,-945,-327,-295
168,-507,14806,-873,-363,-337
510,-566,14559,-961,-337,-351
148,510,14591,-865,-395,-341
510,-1060,14822,-861,-389,-345
765,-558,14591,-929,-337,-353
255,-801,14559,-973,-401,-287
1020,510,15093,-929,-259,-347
-630,-538,14846,-993,-361,-293
510,-993,14838,-937,-385,-387
510,-1666,15053,-941,-387,-329
1020,-913,14830,-853,-373,-421
255,-602,14543,-861,-375,-281
510,-662,14806,-873,-359,-347
-395,-1108,14575,-937,-327,-387
765,-762,14798,-921,-351,-349
765,255,14846,-913,-361,-293
510,-702,14316,-885,-407,-295
510,-467,14798,-889,-385,-355
-582,-299,14806,-969,-419,-299
244,84,14567,-981,-443,-381
244,84,14567,-981,-443,-321
-666,-1132,14806,-1034,-463,-365
510,-383,14798,-957,-343,-359
255,-447,14543,-849,-343,-365
-451,-1387,14567,-897,-341,-367
510,-1276,15607,-925,-329,-349
248,510,14300,-885,-351,-339
-363,-463,14790,-985,-339,-323
-291,-690,14846,-913,-347,-323
84,40,15069,-965,-295,-369
248,-299,14591,-865,-325,-381
52,-917,14591,-921,-393,-351
255,-710,15077,-909,-375,-347
510,-937,14575,-965,-383,-323
765,-873,15356,-857,-483,-357
-267,188,14077,-841,-319,-391
255,-259,14061,-762,-283,-393
255,510,14798,-1107,-423,-371
-491,255,15093,-1021,-371,-343
224,-578,14806,-905,41,-417
192,255,14838,-821,-329,-403
510,-475,14025,-881,-291,-313
765,255,14041,-933,-345,-417
-690,-562,14575,-1057,-259,-367
255,-865,14790,-953,-323,-293
255,-287,15101,-873,-363,-329
1020,-849,15077,-877,-309,-347
765,-463,14296,-937,-343,-351
1279,-335,14591,-1067,-401,-343
255,-746,15332,-989,-363,-319
510,-1371,15300,-961,-321,-335
1020,-977,15101,-809,-281,-385
765,255,14312,-933,-303,-331
1279,-1268,14830,-953,-363,-395
132,-495,15061,-1017,-343,-299
132,-1307,15308,-849,-341,-351
765,255,15316,-861,-295,-357
192,-650,14806,-949,-341,-347
510,-602,14790,-949,-351,-347
-363,-921,14328,-893,-279,-289
-1092,-522,14798,-997,-281,-299
144,-315,14790,-937,-333,-305
80,-965,14830,-885,-353,-343
765,-1698,14551,-933,-323,-305
180,255,14846,-929,-347,-351
255,-969,14838,-997,-383,-305
510,-837,15053,-865,5,-375
-750,-714,14790,-981,-369,-359
-263,212,14535,-1005,-381,-331
255,-618,15093,-985,-351,-381
765,-821,14312,-953,-367,-351
1020,-929,14822,-933,1,-367
255,-909,15061,-889,-293,-367
-315,-690,14790,-853,-373,-339
765,-1036,14814,-953,-415,-341
72,212,15085,-921,-325,-357
765,-809,15061,-929,-333,-369
765,-574,14045,-921,-391,-277
510,-646,14846,-1001,-387,-371
510,-1028,14806,-937,-329,-355
255,-889,14583,-1017,-375,-363
510,-1196,14806,-965,-395,-343
224,255,14559,-913,-307,-293
765,-459,15069,-921,-335,-359
510,255,14814,-925,-323,-275
255,-319,15053,-921,21,-289
1020,-773,14822,-949,-391,-341
510,-1347,14583,-985,-311,-379
255,-913,15069,-945,-347,-257
510,-738,14332,-933,-291,-357
184,-558,14838,-905,-309,-349
765,-586,14543,-901,-381,-337
-259,112,14806,-925,-391,-375
510,-997,14328,-937,-331,-347
-479,-403,14814,-1001,-335,-301
510,-630,14814,-881,-339,-315
-686,-845,14567,-961,-301,-427
120,-1124,14830,-917,-341,-397
-403,-522,14316,-889,-281,-397
52,80,14814,-893,-327,-363
255,-762,14328,-945,-329,-353
-419,-1291,15077,-929,-293,-345
-331,-618,14822,-985,-347,-383
510,-1236,14846,-909,-303,-385
255,160,14806,-985,-337,-321
-630,208,14280,-969,8,-343
96,-1347,14830,-865,-357,-289
128,-1092,14846,-917,-323,-351
765,-734,14846,-993,-291,-365
765,-1403,15356,-1009,-335,-387
255,-877,14559,-945,-297,-325
510,-813,14575,-957,-349,-291
255,200,14798,-921,-383,-355
1275,255,14543,-941,-343,-363
255,-785,14814,-1005,-377,-349
765,-1108,14332,-1021,-401,-359
765,-1108,14332,-1021,-401,-355
510,-407,14822,-937,-371,-319
765,-1387,14312,-905,-351,-383
1530,-1833,14830,-941,-351,-363
-550,-853,14790,-957,-387,-335
510,510,14806,-957,-331,-327
510,255,14567,-925,-323,-321
510,-1076,14535,-1017,-327,-355
-554,-1164,15045,-897,-331,-337
-307,-415,15101,-905,-313,-383
1020,-821,14814,-929,-319,-383
-586,16,15061,-961,-341,-303
-578,-1331,14328,-949,-337,-387
765,-1403,14543,-929,-315,-351
765,24,14559,-897,-297,-345
765,24,14559,-897,-297,-345
176,-327,14583,-969,-393,-377
156,-969,14798,-941,7,-339
510,-1005,14073,-853,-295,-449
255,-1001,15077,-953,-303,-375
510,-869,15061,-1001,-347,-371
-654,-550,15332,-929,-359,-417
255,-933,14284,-945,-311,-343
510,-925,14029,-933,-295,-271
84,-367,15332,-893,-377,-331
510,220,14559,-989,-339,-331
510,220,14559,-989,-339,-303
765,-574,14543,-969,-381,-355
60,-323,14806,-1027,-339,-301
96,-1674,15053,-985,-299,-335
510,-654,15053,-977,-393,-341
510,-781,14814,-937,-313,-369
-303,-1658,15085,-945,-289,-369
510,-291,15085,-921,-327,-381
255,-698,14332,-929,-409,8
510,-1084,15077,-969,-317,-361
510,-702,14790,-921,-343,-353
156,-1682,14543,-949,-331,-291
255,-941,15324,-957,-375,-365
765,-1507,14846,-945,-319,-379
510,-881,14846,-985,62,-371
224,-718,14567,-937,-307,-323
255,-479,14567,-869,-309,-367
255,-634,14316,-897,-317,-339
148,-797,14846,-933,-303,-325
510,-618,14583,-857,-291,-311
255,-969,14798,-893,-295,-311
765,-383,14551,-929,-317,-379
765,-670,14790,-925,-335,-409
765,255,14567,-905,-317,-393
255,-1363,14029,-909,-349,-321
510,60,14551,-869,-313,-381
156,-674,14559,-837,-379,-343
510,255,14814,-917,-373,-357
255,-479,15085,-953,-259,-341
765,-746,14846,-905,-347,-281
1020,255,15077,-1009,-293,-375
765,-1212,14814,-929,-261,-321
510,-367,14280,-957,-425,-293
1020,-351,14543,-957,-271,-309
24,-925,14543,-889,-345,-361
765,255,15316,-901,-345,-349
1020,-1156,14025,-945,-323,-335
765,-785,14838,-1021,3,-381
200,-1307,14583,-957,-323,-307
255,-503,15571,-913,-297,-315
765,-797,15069,-993,-269,-305
510,-530,14790,-905,-299,-379
255,-319,14822,-909,-333,-331
255,-279,14575,-913,-275,-317
255,-845,14296,-989,-361,-379
510,-766,14822,-961,-337,-311
765,-1427,15045,-913,-293,-321
765,-1013,15045,-893,-327,-279
510,-706,14328,-925,-315,-335
1275,-526,14583,-985,-335,-359
176,-658,14575,-921,-357,-355
255,510,14073,-957,-283,-329
-925,-746,13547,-905,-355,-349
-590,-670,14838,-965,-289,-339
510,-650,14830,-945,-327,-301
1020,-503,14284,-957,-313,-291
76,-941,15093,-861,-319,-373
765,-367,15077,-969,-349,-353
510,-578,15324,-961,-335,-383
255,180,15300,-945,-301,-413
1020,28,14790,-881,-299,-351
255,-865,14846,-977,-375,-353
510,-1148,14551,-957,-311,-339
255,200,14846,-949,-301,-311
-471,-1228,15053,-917,-295,-347
1020,-670,15045,-921,-375,-335
1530,-491,14790,-997,-329,-375
255,-1236,14583,-941,-343,-277
212,255,14830,-985,-263,-391
765,-586,14300,-889,59,-365
1534,-582,15053,-973,-337,-309
-351,-1180,14846,-973,-343,-285
1020,-845,14567,-941,-325,-347
184,-578,14280,-869,-367,-401
510,-387,14591,-861,-365,-375
255,-682,14814,-913,-285,-351
-431,-702,15077,-933,-315,-361
248,-1044,15061,-949,-351,-405
255,-403,15077,-953,-309,-369
244,-909,15300,-961,-367,-347
510,-503,15061,-953,-307,-301
-299,244,14296,-873,-267,-311
510,-1260,15061,-985,-339,-365
255,-654,14846,-961,6,-325
255,-1196,14790,-897,-315,-349
510,-586,14567,-901,-319,-301
132,-678,14591,-865,-339,-341
1020,-1060,14846,-913,-281,-407
510,-686,14822,-901,-415,-389
510,-363,15053,-1017,-267,-345
140,132,15077,-973,-379,-399
-379,-865,14583,-953,-427,-355
510,-1339,14822,-921,-349,-423
510,-654,14535,-941,-321,-373
1020,-789,15085,-917,-307,-381
510,-614,14535,-905,-359,-373
-447,-291,14846,-949,-333,-301
64,-419,15316,-937,-283,-323
255,-773,14312,-921,-285,-317
252,-419,15101,-1005,-309,-359
510,-785,14543,-925,-315,-331
255,-1515,14328,-965,-315,-371
108,255,14559,-945,-371,-327
255,-1841,14846,-929,-417,-347
-511,68,14328,-989,-331,-377
-722,-726,14041,-889,-389,-353
510,-913,14822,-905,-341,-351
510,-1323,14806,-881,-271,-311
510,255,14591,-969,-341,-355
510,255,14806,-941,-351,-267
510,-546,14077,-993,-299,-377
96,-483,14575,-929,-303,-339
255,-953,15093,-945,-397,-339
510,-514,14057,-985,-355,-423
255,-355,15045,-901,-287,-367
765,28,14583,-929,-343,-363
255,-722,15085,-909,-323,-337
255,-626,15061,-957,-301,-305
255,-626,15061,-957,-301,-351
255,-626,15061,-961,-301,-351
156,-1276,14559,-969,-343,-401
92,-295,14814,-877,-349,-333
92,-295,14814,-877,-349,-309
765,-921,14814,-893,-379,-309
1020,-829,14328,-961,-365,-355
1279,-650,14830,-913,-347,-319
1020,-857,14798,-969,-323,-309
765,-658,14575,-981,-389,-333
1020,212,15069,-937,28,-379
255,-670,15348,-981,-305,-361
100,92,14300,-973,-327,-323
12,80,15101,-925,-321,-373
255,-283,14846,-937,-361,-389
255,-447,14567,-973,-321,-325
510,-690,14806,-929,-319,-381
510,-419,13822,-941,-361,-317
40,-526,14798,-929,-329,-357
128,-319,14332,-913,26,-323
255,-1044,14567,-1001,-331,-355
255,-722,15340,-917,-287,-347
255,-375,14591,-909,-321,-321
252,-937,14551,-989,-415,-377
228,255,15077,-925,-375,-329
255,-582,15300,-1005,-311,-321
510,-1491,14814,-965,-377,-359
255,-546,14045,-881,-339,-359
255,-801,14830,-941,-319,-353
96,92,14300,-925,255,-363
510,-534,14806,-985,-399,-351
212,-295,14535,-1361,90,-341
255,255,14559,-1451,-357,-299
128,-1076,14296,-1609,-542,510
-1315,72,14790,-1841,-578,1021
-1610,-666,14543,-1865,-705,1785
-1244,-1459,15340,-1753,-537,2813
-1921,-538,15340,-1441,-581,3327
-2216,124,15615,-1154,-457,4091
-2594,24,14543,-753,-429,4591
-2387,244,15085,-777,-365,5102
-2196,765,14567,-845,-339,5359
-1196,140,14543,-921,-345,5611
-347,510,14061,-1146,-263,6138
-813,510,14284,-1315,-385,6391
104,510,15069,-1449,12,6391
255,255,14567,-1371,255,6137
2550,-2084,16328,-1538,-734,6138
3068,-1491,14846,-1513,-630,5871
2303,-2423,14567,-1339,-459,5865
2295,-1483,15069,-1217,-473,5871
510,-1642,15045,-1210,-473,5631
196,-1307,15595,-1113,-473,5627
136,-1180,14806,-1129,-413,5865
-359,-1315,14591,-1147,-307,5865
-307,-622,14077,-1186,-371,6137
-447,-514,14846,-1217,-383,6124
-407,-869,14583,-1145,-391,6399
-889,196,15101,-973,-497,6125
-1690,255,14830,-941,-333,6139
-558,152,14822,-734,47,5610
-614,-447,15316,-586,73,5375
-1009,-769,15324,-534,115,5371
255,-789,14814,-549,227,4845
-279,-1172,14316,-489,73,4861
510,-1084,15348,-582,-317,4591
765,-1236,14798,-533,19,4335
164,-271,14567,-517,200,4091
510,-598,14328,-267,77,3835
72,255,14551,88,139,3571
1020,-307,14806,151,255,3327
1275,-977,14806,255,255,3319
1530,-1172,14806,255,255,3060
1020,255,14300,255,255,3071
2558,510,15069,255,255,2807
2805,-1132,14041,-421,255,2805
3582,244,12750,-1089,255,2815
2558,-546,14300,-1435,-785,2295
2044,-1459,13822,-1714,-517,2047
2558,-1666,15862,-1371,-530,2044
510,-1594,15862,-618,43,2044
255,-606,14806,-455,219,2551
255,-411,14296,-694,255,2813
1020,-1124,15069,-481,255,3833
765,-801,15332,-545,510,3829
765,-801,15332,-545,510,4087
1275,-654,15332,2,255,4087
1275,-1546,15053,113,510,4351
2044,-817,14280,-279,765,4591
1530,-1754,14838,188,511,4590
1275,-1172,14296,10,510,4591
-431,-973,14061,-343,765,5117
765,-1682,14041,-445,511,5102
510,-1172,14806,-499,255,5375
-287,-1196,14846,-609,120,5355
255,1020,14312,-785,510,5359
-283,255,15810,-1122,255,5101
1020,128,15579,-781,-657,5355
1020,-602,14814,-933,765,5359
765,-1419,14790,-669,255,5881
765,-1594,14838,-713,253,6137
1275,-730,15069,-546,255,6383
765,-2407,15077,-425,255,6630
510,-339,15332,-339,255,6638
220,-343,15587,-343,106,6654
-694,255,15356,-395,255,6887
-638,510,14790,-349,255,7165
124,228,15332,255,255,6893
510,-897,14543,255,191,7143
510,-487,14328,255,55,7423
765,-690,14312,255,142,7407
765,-351,14806,167,81,7411
-1005,255,14284,54,-273,7403
-323,220,14025,-283,30,7395
40,252,14025,-313,71,7411
255,255,14591,-483,78,7403
-686,196,14296,-522,91,7423
510,-622,14814,-562,100,7419
-861,-518,14830,-682,66,7399
-299,1020,14798,-629,92,7679
255,-566,15316,-769,26,7423
-682,255,14790,-762,-257,7659
-861,510,14535,-765,53,7415
255,224,14591,-817,92,7407
-885,192,14284,-857,154,7415
-1459,765,13786,-953,194,7166
-351,255,14551,-921,223,7148
-642,255,14543,-1013,255,7411
-542,-447,14591,-1013,255,7674
-518,-283,14559,-1097,255,7666
-777,8,14830,-1156,511,8179
-1172,-1244,15077,-1013,510,8415
-1036,-1371,14798,-957,510,8702
-1244,16,15085,-917,767,9213
-1212,-375,15061,-905,767,9439
-758,-921,15332,-869,767,9945
-1283,-1618,15340,-893,765,10751
-1036,-1921,14535,-769,765,11255
-977,-1531,14806,-714,767,12017
-1140,-1809,15093,-689,1023,12543
-1052,-1809,15053,-678,1023,13037
-1371,-295,14551,-625,1279,13293
-1770,-917,14312,-649,1279,13775
-1403,-1634,14045,-657,1279,14298
-674,-1841,14077,-742,1021,15332
-714,-897,14567,-661,1023,15607
-1244,-1331,15101,-585,767,15854
-379,255,14551,-485,1023,16101
765,-825,14280,-487,1022,16101
176,255,13806,-557,1021,16117
48,1020,14025,-677,1023,16125
510,765,14284,-833,767,15599
765,1020,14332,-853,511,15348
1020,1534,14332,-945,767,14847
180,2044,14296,-1180,511,14075
255,2813,14543,-1321,511,13802
765,1020,13786,-1379,767,13263
255,1020,14567,-1513,765,13308
-371,-291,15308,-1585,765,13055
-1260,-654,14045,-1665,767,12782
-598,1020,14061,-1865,1023,12799
-849,765,14567,-1833,765,12782
-650,104,14583,-2033,767,12751
224,-263,16639,-1041,-885,13053
-917,-698,14061,-1041,511,13547
-1913,765,15308,-1179,1022,13531
-1825,-869,15045,-1107,-641,13803
-1937,-351,14284,-1379,-638,13803
-1913,-1092,14312,-1273,-793,14283
-1515,510,14798,-1116,-634,14296
-1905,510,14846,-1013,-521,14583
-2248,765,15061,-801,-525,14847
-2088,255,15348,-710,-653,15079
-2216,255,15093,-351,-597,15095
-2582,1020,15862,-399,-511,15317
-2626,1020,15332,-327,-837,15603
-1873,765,14822,-379,25,15811
-1618,1530,14332,-299,6,16083
-2120,1534,16639,-734,511,16119
-1204,2295,14045,-590,-1108,16093
-1204,2295,14045,-590,-1108,16085
510,1530,14846,-375,-381,15854
168,1785,14846,255,255,16089
765,1020,16372,92,-411,16065
-343,1020,15093,-379,-311,15871
765,2295,14822,229,511,16083
765,1534,15316,70,41,15855
1275,2040,15061,255,255,15839
1530,2295,14583,255,255,15854
2040,1530,15324,255,510,15591
1789,765,14332,92,225,15316
1530,1785,14575,153,255,15341
1020,2044,14280,23,255,15343
1530,510,14790,127,511,15317
1020,765,14045,255,767,15055
1534,510,16830,-277,-477,14831
1020,216,14045,62,511,15045
2303,-1507,17914,-913,231,14317
1275,1530,14543,-1089,255,13531
1530,3068,14559,-789,767,14838
2044,1530,14328,-445,-263,15053
510,-379,15324,-423,173,15077
2295,-1419,16360,-569,236,14559
2550,68,12495,-525,-491,14591
510,-638,13567,-809,-501,14823
-897,248,14559,-1193,510,14806
510,-1060,13802,-1457,255,14583
1534,-2136,12276,-2135,-389,14299
510,510,15324,-1706,255,14535
255,765,16639,-1762,235,14330
510,255,13535,-1690,127,14331
510,-825,14535,-1690,510,14059
44,-654,12798,-1873,11,14296
-837,-419,14583,-2503,1279,14043
765,-901,14822,-1961,-337,13770
1020,88,15093,-1578,-443,13774
-447,-662,14332,-1682,1023,14041
765,255,14583,-2678,-554,13547
1785,765,17663,-1913,-1268,13807
20,510,12543,-2072,71,13807
-734,-487,14830,-2098,177,13519
8,-455,15607,-2179,-331,13791
-554,152,17404,-1761,109,13790
-1148,-391,14300,-2098,255,13567
-403,164,16575,-1521,139,13293
-387,-1084,15324,-1786,765,13294
-1371,-271,14846,-1746,255,13039
1530,-893,13260,-2387,-905,13279
510,244,15340,-1531,255,13279
1020,32,15053,-1403,-317,12799
255,-1339,12244,-1977,255,12495
248,-941,14543,-2009,250,12527
1789,-1339,14822,-2321,-809,12279
1530,-1491,13308,-2561,-785,12250
1534,-570,13818,-3076,-377,11511
1020,-1451,14316,-3061,-674,11228
765,-1578,14025,-3491,42,10975
1530,-1531,13822,-3585,-730,10742
1279,-1889,14316,-3857,-641,10236
1279,-2738,14806,-4132,-1235,9726
1275,-1698,14830,-4196,-1273,9467
765,-1268,15069,-3937,-1467,9212
255,-1299,15348,-3730,-1433,8927
255,-1809,15356,-3665,-1467,8702
-594,-2594,15077,-3571,-1377,8415
510,-2009,15101,-3235,-1228,8171
1020,-1331,15356,-3155,-1371,7663
510,-1674,15583,-2678,-1377,7671
164,-1993,16109,-2566,-1273,6903
16,-2152,15826,-2198,-1212,6631
255,-1212,15077,-2115,-1130,6137
56,-2821,14838,-2069,-1027,5881
765,-2168,14822,-2120,-1361,5101
765,-2001,15069,-1985,-1307,4591
510,-2371,14806,-1953,-1409,4090
765,-2551,14838,-1825,-1433,3831
1530,-1881,15575,-1873,-1483,3068
176,-1578,15061,-1617,-1491,2805
132,-2041,15818,-1507,-1601,2303
765,-2467,15077,-1291,-1570,2044
1020,-1666,15316,-1235,-1665,1791
510,-1570,15316,-973,-1610,1279
1020,-3057,16575,-857,-1465,1279
2040,-4260,16360,-279,-1618,2047
2303,-3714,16360,246,-2693,2041
765,-3459,16328,511,-2802,2041
255,-1833,16332,1020,-2837,2047
255,-2371,16113,1530,-2913,2303
1020,-1060,13053,1789,-1754,2303
3327,140,10487,1785,1020,3327
7411,-562,10200,198,2807,3579
5869,-2738,10487,-1170,1020,3582
5614,-2674,11770,-2182,-598,3315
2805,-1961,13021,-3473,-1427,3319
3068,-1100,13567,-3491,-1098,2558
255,-662,14316,-3569,-403,2047
1275,-562,15850,-3523,255,1530
255,-670,15583,-2833,1279,1530
-387,-451,15101,-3153,138,1531
1785,-1156,14830,-3187,510,1531
1785,-1339,14543,-2949,767,1275
1530,-2120,14822,-3153,255,765
1275,-658,14567,-3138,765,510
510,-1809,13308,-2469,3319,255
255,-1793,14332,-3265,2303,-785
2044,-690,22189,-391,-3122,-825
2550,-514,15834,236,2047,-889
-267,-447,17149,765,-469,-1068
-961,255,12244,253,1530,-1483
-1068,510,13037,-573,1785,-1665
-674,510,15818,-558,767,-1586
-821,-730,14316,-257,64,-1577
-1268,-459,15567,-885,511,-1761
-973,-594,16344,-271,-407,-1769
-339,-829,11993,-833,1279,-2535
-1491,255,12495,-1729,1279,-2625
510,-650,17404,-769,-1658,-2977
-451,765,14296,-1209,-582,-3777
255,765,14591,-1217,2,-4106
255,-554,14296,-1083,-649,-4065
104,-1036,13802,-1529,-597,-4353
208,510,17404,-1345,-2533,-4559
-777,255,14567,-1577,-463,-5481
-1443,510,14806,-1467,-1107,-5601
-2196,510,14806,-1172,-1107,-5601
-2343,-403,15101,-1737,54,-5611
-2339,-379,15591,-709,255,-5547
-3124,765,15603,-439,-313,-5505
-2582,112,15356,-459,226,-5387
-2152,-853,14025,-594,124,-5282
-2248,-686,15571,-993,-1100,-5356
-1323,-897,16117,205,511,-5346
-1164,-1132,13308,217,244,-5314
-1013,-1244,14575,-849,-589,-5226
140,-865,13822,-1169,-411,-5124
-857,-475,14543,-1209,-337,-4773
-662,44,15810,-765,-518,-4519
255,140,16085,-419,67,-4033
-698,-626,14591,-355,-295,-4001
255,20,13547,-989,-694,-3905
255,196,14284,-1379,-489,-3810
255,-275,14045,-1570,-566,-3794
510,32,15348,-1220,200,-3714
510,765,17149,-561,-673,-3777
1275,255,15579,59,180,-3825
765,510,13822,-533,-277,-3985
765,-407,13515,-629,188,-4001
1534,510,15563,-833,-638,-4065
1020,-562,14559,-574,255,-4238
72,510,15053,-665,-742,-4292
-463,765,14790,-817,-653,-4265
-602,510,14296,-945,-397,-4196
-1108,765,15093,-933,-265,-4033
60,-738,14284,-905,-329,-3889
-929,-487,13818,-1005,-471,-3665
-1260,-945,14077,-1313,-459,-3537
-1036,-347,15818,-1337,-277,-3537
-1403,-626,15085,-837,203,-3730
-1451,-881,15300,-538,100,-3425
-1570,-1881,14814,-730,255,-3156
-423,-1451,13790,-901,-305,-2961
510,108,14798,-1297,-379,-2993
136,-507,14300,-1297,-355,-3092
255,68,15061,-1146,-273,-3061
255,765,14583,-1073,-417,-3105
510,255,15101,-973,-407,-3092
510,-387,15045,-837,-375,-3057
-315,212,15045,-746,-487,-3268
144,765,15308,-745,-530,-3441
-869,144,14583,-845,-537,-3441
-869,144,14583,-845,-537,-3363
-586,200,14798,-654,-411,-3316
-570,-618,14312,-693,-554,-3235
510,-439,14790,-705,-477,-3139
510,-439,14822,-577,-461,-3156
255,-1044,14790,-562,-509,-3186
255,-499,15053,-361,-545,-3219
255,-491,15077,-349,-569,-3140
510,510,15077,-431,-709,-3122
510,-1052,15077,-377,-738,-3249
765,-395,14838,-534,-797,-3331
-351,-785,14535,-485,-765,-3395
255,-363,14830,-497,-817,-3411
510,-730,14559,-614,-805,-3331
765,-419,15300,-301,-581,-3377
765,84,15563,37,-329,-3329
255,-849,15085,35,-475,-3250
255,-1212,14830,182,-517,-3283
255,-897,15053,156,-491,-3298
176,-1475,14790,237,-433,-3220
255,-1076,14332,129,-529,-3265
164,-925,14543,51,-347,-3361
765,-590,14830,162,-341,-3427
765,196,15069,176,-337,-3475
1020,255,14591,186,-313,-3411
212,255,15101,148,-369,-3443
765,765,15069,53,-313,-3539
1020,255,14798,-289,-361,-3425
765,-471,14296,-379,-518,-3457
1020,104,14041,-649,-545,-3425
1020,255,13790,-742,-614,-3427
510,-1244,14284,-1005,-457,-3491
255,140,13822,-1139,-526,-3393
255,510,14316,-1281,-431,-3377
765,-598,14073,-1395,55,-3409
765,-455,14798,-1593,139,-3329
255,255,14077,-1777,167,-3298
255,92,14583,-1721,255,-3233
-618,-714,14543,-1754,255,-3299
765,-666,14296,-1753,255,-3249
255,-949,14296,-1905,255,-3314
765,140,14838,-1905,255,-3425
1020,28,14822,-2041,255,-3441
765,-885,14061,-2181,255,-3586
510,-781,14045,-2401,510,-3777
1020,104,14543,-2578,510,-3841
765,16,13802,-2677,765,-3905
1020,255,18424,-2353,-750,-3905
1530,-574,17595,-1089,510,-4033
1020,-809,17149,102,23,-4198
765,765,16575,765,765,-4353
1279,-335,11511,-457,765,-4232
255,765,13053,-1345,-257,-4423
510,-730,14316,-1770,-1865,-4547
1020,-479,17085,-1769,168,-5929
1530,-909,15061,-590,-877,-6629
510,-646,14284,41,-594,-7362
1789,80,13308,59,255,-8543
2040,-769,13308,-985,-726,-8917
2303,-714,15077,-1299,-754,-9436
765,-367,14814,-1225,-578,-10837
1020,-327,15324,-805,-598,-11457
1020,216,15085,-573,-682,-12870
2558,-1124,13005,-1121,-813,-13249
1275,-678,14041,-2197,-925,-13507
-550,-789,16575,-1097,-1252,-14025
765,-2658,15575,86,1275,-14978
1785,-347,17599,255,765,-15555
1275,1020,16069,1021,-801,-16321
2040,-1634,14332,511,255,-16817
2303,-1451,11005,-487,765,-16795
1789,-933,12798,-2025,-1185,-16930
765,-1578,16093,-1873,-313,-17835
-857,-1260,16830,-678,255,-18440
1279,-1738,16830,9,255,-19233
1020,-742,15579,767,-415,-19604
24,-1355,14535,767,114,-19859
1279,-1291,13563,765,765,-20130
2550,-1283,11738,-1305,-429,-19843
255,-937,15061,-2099,-1066,-19986
255,44,15587,-1473,-269,-20353
1020,-929,17085,-937,-443,-21253
510,-2355,14591,-451,-301,-21381
510,-259,14332,70,-421,-21539
-1722,-1459,16639,255,1020,-21381
-666,-427,15300,58,767,-20369
-3331,1530,13308,-617,-689,-19489
-6180,2813,14575,-641,-941,-18465
-8400,2558,14798,-602,767,-15554
-8344,3829,15603,-629,255,-13897
-7109,4351,14822,-590,-805,-10641
-6184,3068,14559,-1074,-753,-9037
-3507,2805,14073,-1169,174,-6854
-2327,255,15324,-1497,48,-6344
255,-1180,14073,-1618,-734,-6376
2550,-2981,13567,-1953,-1145,-6338
3327,-3156,13818,-2274,-269,-5507
3829,-3762,14814,-2833,-941,-5217
1534,-3762,14077,-3137,-1124,-4065
510,-3347,14583,-3457,-1041,-3411
180,-2706,14559,-3411,-1092,-2033
-821,-2853,15348,-3347,-1044,-1393
-311,-1897,14798,-3090,-1065,110
-1228,-2228,14591,-3090,-897,510
72,-2566,14798,-2821,-873,1022
255,-1068,14591,-2837,-861,1023
765,-411,14328,-2849,-933,1020
1275,1275,14583,-3313,-977,1020
765,1020,13567,-3681,-1241,255
765,2044,13547,-4842,-1441,-325
1020,-961,13535,-5346,-1666,-405
208,255,14280,-5825,-1745,2
-566,-1523,14280,-5769,-1785,179
200,-1188,14790,-5706,-1721,511
-359,-1586,15348,-5250,-1673,510
255,-1140,15559,-4965,-1521,510
1275,-793,15567,-4265,-1323,510
510,-1172,16109,-3251,-291,510
510,-1730,16368,-2469,-335,510
1275,-1244,15866,-1745,221,765
2040,-1188,14846,-1753,4,767
2303,-965,15340,-1801,-361,765
2303,-574,15069,-1657,-391,765
1530,-821,15591,-1491,-373,510
252,-618,15332,-973,-257,511
255,-1762,15061,-602,-369,510
255,-1276,15101,-349,-459,511
212,-993,15567,240,-353,510
1279,-1204,15085,229,-465,510
144,-1531,14559,255,-427,510
510,-1793,15045,179,-507,767
255,-2997,15061,190,-525,1279
255,-2551,15316,222,-505,1787
-586,-1937,14806,255,-582,1534
510,765,15101,255,-682,1275
-299,-1132,14798,255,-609,1275
-307,-427,14591,255,-521,1279
-734,-439,14296,-507,213,1535
510,-1849,13802,-917,-545,1787
128,-1658,14332,-1417,-455,1534
255,-511,14838,-1433,-479,1531
510,-1108,15587,-1234,-277,1787
510,-1451,16093,-433,-409,1785
1279,-2017,14567,-605,-263,2040
510,-2355,14041,-658,-285,2303
510,-1339,14798,-637,-337,2559
765,-1793,15045,-473,86,3071
765,-1467,15838,59,124,3315
765,-1403,15826,173,99,3578
112,-343,15061,255,255,3319
765,-610,15559,767,255,3063
510,-598,15101,1021,511,3061
1534,-1331,15085,1020,255,3069
255,-1092,15045,1279,510,3069
1275,-706,15308,1279,767,3060
510,-1841,15340,1279,1022,3315
1279,-1778,14591,1787,767,3839
510,-1268,15555,2040,765,4082
1275,-2072,14806,2303,1023,3837
1530,-957,15866,2813,1023,4082
510,124,15834,3062,1022,3837
1020,510,15583,3319,1279,3837
1020,-1451,16344,3571,1279,4082
1530,-1626,15069,3575,1275,4861
510,-1507,15324,3831,1275,4847
255,-1013,15045,3835,1279,5101
510,-873,14567,3837,1279,4591
-383,1279,13790,3583,1023,4351
255,1020,13308,3069,765,4090
-594,1020,14041,2295,511,3835
-407,765,13037,1785,511,3833
-698,-335,14045,1275,255,3582
-503,208,14559,1022,255,3583
-471,-1172,14041,510,255,3833
248,-698,15077,255,255,3583
765,-1196,15077,255,255,3571
116,-857,14790,255,255,3578
-463,-339,15356,212,255,3570
-403,184,14575,255,244,3579
-710,-941,13786,-389,202,3570
-303,-275,14559,-653,121,3575
-483,-1260,13802,-869,130,3839
-391,-762,14296,-1267,128,3583
-283,255,13515,-1513,190,3827
255,-1036,14332,-1753,175,4335
-706,-2774,14583,-2132,93,4606
255,-2487,14025,-2487,82,5102
-570,-1499,14057,-2629,81,6139
44,-1634,14025,-2833,-259,6909
-491,-1523,14332,-3025,55,7419
-399,-271,14284,-3105,38,7395
-371,255,14575,-3220,-271,7663
-471,36,14543,-3363,-357,7666
1530,510,14077,-3425,-413,7663
510,510,14551,-3523,-521,7923
765,510,15607,-3634,-530,8447
132,-769,15069,-3665,-606,8959
1534,-1068,14559,-3633,-479,8447
48,-3571,14535,-3585,-538,8447
255,-1475,14814,-3489,-379,8447
1020,-1268,15053,-3457,-499,8703
1020,-586,15077,-3075,-403,8671
510,-1658,15563,-2885,-433,8181
765,-1722,15846,-2391,-309,8182
144,-1801,15579,-2149,105,8172
765,-1618,14814,-1793,203,8447
-335,-439,14591,-1569,255,8183
255,255,14838,-1481,255,7141
1020,1279,14846,-1345,255,6630
1534,2044,15069,-1427,255,6124
765,1530,14798,-1417,255,5102
1020,1275,14551,-1545,24,4847
1020,216,15332,-1626,21,4095
765,255,15069,-1625,-285,3570
510,1020,14316,-1593,-461,3071
-682,2040,13806,-1618,-409,2295
-1228,1785,14077,-1809,-401,2045
-586,-1140,14575,-1993,-353,1787
255,-1491,14798,-2135,-383,1789
765,-1714,15061,-2009,-581,2042
765,-813,15053,-1929,-661,2043
510,255,15077,-1505,-733,1787
1279,-586,14567,-1331,-713,1530
255,-722,14583,-1124,-781,1534
255,-347,14041,-953,-773,1530
1279,-1076,14790,-949,-917,1534
1020,-1602,14814,-993,-969,1785
1275,-2244,14583,-897,-969,2550
1020,-2981,15053,-1092,-1005,3327
255,-3586,14559,-1052,-1172,4335
255,-1443,15053,-989,-981,4606
-295,-901,15077,-917,-801,4845
510,-2674,15559,-993,-961,5867
255,-1467,15093,-973,-957,6125
255,-1387,14045,-1042,-973,6638
510,-1953,14077,-1154,-1021,6911
765,-435,14814,-1233,-1066,6909
765,-546,15053,-1347,-1115,7165
1020,510,15069,-1251,-1066,7407
255,765,14806,-1204,-1074,6895
255,510,14798,-1052,-921,6375
510,1530,15045,-981,-745,5614
510,1020,14551,-1013,-765,5610
176,132,14280,-1051,-670,5611
255,510,14029,-1066,-610,5359
224,1275,14567,-837,-701,4847
510,1020,14559,-813,-601,4845
255,1020,14806,-609,-594,4351
1020,510,14300,-441,-653,4081
765,-642,14029,-395,-475,4083
765,-546,14280,-375,-403,3827
510,-263,14312,-465,-321,3579
1534,-1204,14798,-658,-275,3570
1534,-630,14806,-642,-421,3582
1534,-642,14806,-706,-325,3827
255,765,15101,-701,-461,3315
-893,255,14567,-717,-357,3068
-391,510,14798,-766,-447,3060
-678,20,14300,-833,-459,2551
-789,510,14551,-1068,-529,2295
765,-1052,15101,-1145,-553,2303
1020,224,14798,-1005,-433,2041
1020,224,14798,-1005,-433,2046
1020,-837,14806,-789,-381,2046
180,-758,14057,-626,-329,1785
-869,-1140,14822,-279,165,1787
-789,-1252,15854,114,160,1785
-626,-734,14790,255,163,1785
-546,-758,15093,511,255,1787
-419,-777,14838,510,255,1791
-303,-777,14838,510,255,1791
-407,-1164,15308,765,510,2043
510,-291,14296,765,510,1787
510,176,15085,765,511,1530
255,-873,14551,511,255,1530
765,-1252,14830,767,216,1531
510,-307,15300,767,228,1279
255,-993,14806,511,59,1279
255,-483,15077,767,178,1534
-606,-355,14806,767,49,1275
-483,68,14559,767,110,1535
510,148,15053,765,75,1791
-335,148,15053,511,75,1791
510,-578,15332,511,20,1785
1020,-259,15308,510,-405,2046
1275,-507,15563,510,-550,2303
1020,255,15316,511,-773,2303
255,-1028,16639,510,-1481,2559
510,255,16575,510,-1857,2805
765,255,17340,765,-2321,2813
1020,255,17149,765,-3090,3063
1530,255,17404,767,-3441,3063
1530,255,16639,1023,-3921,3063
1530,24,17149,1275,-4587,3061
1789,255,16894,1275,-4961,3069
1275,255,17149,1535,-5348,3060
1534,-479,16639,1534,-6089,2813
1534,255,16830,1789,-6437,2551
765,-359,16639,1791,-6977,2295
2295,-750,16109,2040,-7201,1787
1789,-463,15324,2303,-7425,1534
1275,765,15858,2550,-7906,1279
2295,-550,15870,2813,-8033,1020
1530,255,16085,2807,-8334,1021
1279,255,15316,3060,-8533,511
255,-941,15838,3319,-8778,510
160,-546,15611,3319,-8961,510
255,-2180,15607,3578,-9117,510
-977,-1092,15563,3825,-9177,511
510,108,14790,3831,-9236,510
-323,-1068,14280,3839,-9227,511
255,-1411,13770,3574,-9177,511
-594,-1084,14057,3319,-9306,510
-379,84,14316,3069,-9282,510
-857,-917,14077,2813,-9346,511
510,-1499,14575,2551,-9290,511
72,510,14045,2295,-9361,255
28,-746,14300,2295,-9345,255
765,-913,15085,2303,-9308,255
2044,255,15069,2044,-9428,255
2303,116,15340,1785,-9539,255
3060,-1052,15575,1534,-9737,255
3570,-666,15045,1531,-10248,255
3319,-953,15810,1534,-10631,255
4088,-626,16328,1023,-11412,255
4845,-722,17595,1022,-11922,510
4084,-754,17595,765,-12621,511
3825,255,17404,767,-13962,767
2813,-646,18424,767,-14659,767
3060,255,17914,765,-15362,767
3833,-793,17663,765,-16785,1023
3837,-1116,17659,511,-17572,767
3323,765,17340,510,-18993,765
2303,510,16894,511,-19729,767
2813,100,18109,510,-20241,767
3327,-375,17085,510,-21507,767
3825,-1228,16830,511,-22185,767
3837,44,17340,765,-23174,765
3068,148,16101,511,-23587,255
3574,255,15838,767,-23969,251
3829,-514,15340,767,-24321,255
4092,255,14284,1021,-24586,10
4084,765,14790,1023,-24577,-433
3578,1275,15356,1021,-24855,-766
1785,-1586,15053,1530,-25218,-335
3068,-1809,13515,2043,-25229,-305
2813,-1969,13567,4591,-25357,765
4335,1275,15340,5359,-24225,255
3315,1534,14061,5869,-24481,-437
1275,2040,13037,5118,-24449,-283
2295,1534,12782,4591,-24194,50
2813,1789,12495,3327,-23969,89
3060,1020,11770,2550,-23461,255
6383,765,11766,1535,-23170,255
6136,-299,12017,1023,-22915,255
3578,1279,13515,765,-22533,75
3068,1789,13790,255,-22409,33
3582,1020,13260,-317,-22058,255
3582,1275,12527,-1188,-21897,511
3574,765,13053,-2193,-21257,1279
5355,765,13308,-3106,-20615,1534
5355,765,13308,-3106,-20615,1530
3323,240,13005,-3443,-20241,1531
3582,2813,11997,-3937,-19713,1530
3060,1530,12543,-4049,-19361,1530
3837,2044,12798,-4395,-18582,1785
5865,1534,12280,-4846,-18193,1789
6630,1020,12017,-5061,-17459,2044
6885,-371,11766,-5379,-16941,2042
6638,255,11252,-5547,-16129,2295
6136,255,11483,-5929,-15809,2046
6383,1020,13053,-5985,-15426,2046
7917,1020,13005,-6025,-15489,1791
8702,-1570,12543,-6081,-15427,2044
9435,-1451,11997,-6121,-15490,1785
8447,510,11005,-6113,-15237,1020
9212,510,10997,-6182,-14982,767
8415,765,10710,-6369,-14401,255
7395,510,10463,-6945,-13898,20
7913,0,10973,-7137,-13121,-451
7415,255,11220,-7489,-12941,-742
7164,1020,12029,-7585,-12938,-913
7921,765,11993,-7714,-12289,-829
8164,220,11993,-7396,-12241,-785
8160,-511,13037,-7169,-12097,-753
9212,-1013,12798,-6854,-11985,-693
9694,-662,12276,-6821,-12049,-829
8670,255,12511,-7045,-12161,-873
10455,-785,12240,-7141,-12364,-869
9981,-1570,11774,-7457,-12623,-701
10495,-1172,12511,-7619,-12933,-881
9977,510,13519,-7521,-13380,-993
10750,255,12798,-7523,-13513,-597
10487,-1387,11742,-7393,-14281,-582
10236,64,11005,-6885,-14153,-769
9180,255,10965,-6753,-13961,-741
8670,-463,11483,-6342,-13771,-467
8702,-1156,10710,-6248,-13643,145
8670,-1562,10236,-5993,-13057,767
8670,-1116,10463,-5953,-12549,1021
8702,104,10200,-5953,-11906,1022
8180,510,10200,-5929,-10769,1020
8925,510,9471,-6049,-10309,1021
9212,84,8925,-6057,-9283,1022
9694,-411,9981,-6212,-8989,767
9180,-594,9977,-6374,-8272,765
9977,144,10232,-6342,-7906,767
9945,255,10710,-6310,-7651,765
9467,-514,10742,-6306,-7235,767
9945,-1084,10750,-6275,-6949,767
10495,-1220,11252,-6184,-6693,767
10487,255,10973,-6152,-6497,765
9694,-602,10718,-6210,-6121,767
9981,255,10495,-6146,-5761,510
9977,-550,10495,-6180,-5385,510
9180,-399,10973,-6147,-4841,255
9726,-781,10742,-6277,-4645,176
11519,-1451,9981,-6371,-4324,255
10455,-1515,10200,-6439,-4294,255
10997,-833,9981,-6403,-4135,255
11220,-945,10710,-6435,-4033,510
10965,-1387,11730,-6121,-3746,511
10232,-1387,11730,-6121,-3746,255
9694,-451,12021,-5738,-3634,255
10455,-323,11515,-5449,-3649,255
10200,-1427,10997,-5124,-3425,255
11228,-2025,11479,-4997,-3363,198
10487,-1801,11734,-4650,-3236,179
9977,-2072,11252,-4485,-3122,-321
10495,80,11730,-4271,-2710,-554
10232,-546,11993,-4001,-2485,-1172
10200,-526,11483,-3761,-2209,-1467
9471,-921,12017,-3633,-1953,-2052
9180,255,11766,-3233,-1761,-2323
10742,255,10965,-3013,-1753,-3106
10495,255,12527,-2581,-1513,-3457
11005,-817,12284,-1969,-1433,-3921
10997,-1307,12248,-1658,-1281,-4033
10710,-3220,12527,-917,-1186,-4001
10463,-2610,11774,-570,-897,-3633
9945,-2407,10997,255,-741,-3393
9690,-1809,11252,255,-353,-2705
8925,-3395,11005,510,190,-2261
8957,-3300,10200,765,510,-1937
8415,-2742,9945,767,1021,-1098
8670,-4523,9212,511,1279,-573
8164,-3810,8164,255,2047,111
9435,-2917,7395,111,2559,765
9435,-1937,8447,-1066,3063,767
9471,-2451,9439,-1473,4081,1022
9212,-1546,9977,-2017,4845,767
8925,255,10236,-2161,5883,765
9945,-797,10742,-2165,6126,767
9439,-1778,9977,-2232,6383,767
9212,-2072,10455,-2180,6646,1023
9439,-1339,10455,-2009,6654,1534
9726,-1196,10200,-1897,6893,1531
10236,-538,10965,-1601,6885,2040
10455,-738,10750,-1155,7156,2046
10236,-1028,9945,-885,7157,2044
10204,-1172,10997,-389,7651,2042
10495,-1140,10997,121,7935,1785
10495,-1268,11770,255,8415,1785
10973,-1148,10495,510,9180,1531
10718,-654,10204,1279,9435,1275
10200,-933,10973,1279,9212,1022
9722,-722,10200,1275,9439,1023
9212,-662,10742,1022,9726,767
9467,-686,11252,1023,10202,765
9180,-730,11228,1279,10710,510
9180,-1001,11519,1535,11253,510
8957,-1650,11734,1789,11774,510
8172,-1889,11220,2295,12543,765
8702,-1387,10750,2551,13037,765
7140,-2614,10487,2807,13567,1020
7921,-2088,10965,2805,14332,1535
7399,-2614,10455,2558,14830,1534
7921,-2072,9722,2295,15871,1791
7140,-1714,9180,1785,16370,2040
6638,-805,9694,1534,17854,2042
5100,-2786,10236,1534,18367,2551
7921,-3204,11005,1787,19643,2807
7925,-1801,9690,1785,20153,2815
7933,-2503,10236,1275,20655,3068
7148,-2837,10710,1020,21245,3315
6638,-2292,10742,103,21245,3571
7666,-1969,10965,-501,21759,3582
8670,-3140,11228,-573,22249,3570
7905,-2913,11734,-549,22719,3831
8670,-2965,11483,-387,22775,4084
7929,-1786,11507,37,23293,3839
8957,-2276,12021,-261,23277,4092
8925,-1778,11734,-415,23038,4092
9212,-1690,13021,-581,23038,4088
9180,-1730,12280,-1050,22271,4089
7674,-1371,13563,-1403,21951,3829
9435,-1459,14029,-1569,21484,3579
8702,-463,13790,-1593,21247,3319
8957,-562,14551,-1585,20411,3070
8957,-941,13531,-1666,20217,2807
8447,-674,13806,-1634,19699,2551
7674,-1092,13774,-1666,19447,2303
8447,-893,14077,-1729,18870,2295
6893,-307,14332,-1665,18623,2303
6375,-1379,14567,-1521,18169,2041
6391,-1403,14830,-1385,17855,2047
5865,-973,15053,-1068,17599,2041
6399,-1124,15316,-710,17151,2303
5881,-1299,14838,-341,16639,2303
6399,-1706,15061,-309,16345,2550
5626,-1531,15085,-451,16073,2550
4335,-1825,14583,-670,15579,3069
4088,-1706,15085,-833,15343,3061
3825,-1028,14790,-921,15101,3062
3825,-2343,14280,-873,15095,3327
2805,-2849,15340,-653,14799,3829
3829,-3156,15077,255,15055,4095
4335,-2033,15053,511,15061,4335
4335,-1323,13790,510,14815,3829
3323,-1586,14045,240,14591,3831
4080,-1395,13519,-561,14567,3570
4084,-1531,13547,-1347,14567,3582
4606,-2056,14073,-1481,14567,3327
4351,-1068,14284,-1122,14815,3070
3574,-1666,15077,-1005,14806,2805
4092,-1387,14332,-598,15079,2815
4351,-817,15069,-505,15061,2815
3833,-1283,14790,-455,14846,2558
4606,-1140,14798,-522,14798,2815
4606,-1722,15053,-455,14567,2813
4084,-1068,14567,-393,14332,2550
4351,-785,14583,-315,14312,2559
5610,-714,14551,-526,14077,2303
4590,-1236,14543,-821,14061,2303
5100,-789,14814,-905,13774,2046
5359,-893,15085,-1057,13531,1791
4606,-1546,15316,-1050,13023,1535
2813,-1841,15356,-1107,13037,1535
2550,-1507,15356,-1107,12527,1535
2040,-1809,15093,-1250,12495,1534
2303,-1626,15077,-1273,12243,1789
2303,-1714,15348,-1585,12274,1785
2295,-1873,15077,-1689,11771,1791
1785,-2120,15324,-1793,11738,1531
2040,-2311,14567,-1857,11515,1531
2295,-2821,14567,-2118,11487,1531
1789,-3268,14077,-2025,11483,1279
1789,-2009,15300,-2179,11479,1279
1020,-2084,15101,-2135,11253,1021
2558,-2487,15356,-2214,11230,1021
1020,-1706,15324,-1905,10718,1020
1020,-1706,15324,-1905,10718,1022
765,-1809,15842,-1786,10710,1022
1279,-1937,15559,-1577,10463,1022
765,-1419,15587,-1554,10463,1023
255,-2435,15555,-1529,10203,1023
1020,-1411,15053,-1435,9951,765
765,-2025,15324,-1523,9983,1021
1275,-1523,14846,-1515,9951,1022
1279,-2088,14575,-1682,9977,767
1534,-2180,14543,-1722,10235,767
2044,-1873,14312,-1913,10236,510
765,-2017,14073,-1921,10455,511
1020,-1969,14061,-1865,10495,511
765,-2025,13567,-1865,10750,255
765,-1913,14073,-1778,10999,255
1275,-2885,14316,-1841,11223,255
1020,-2296,13774,-1865,11762,217
1020,-2296,13774,-1865,11762,70
255,-1865,14029,-1865,11770,70
510,-2562,14312,-1993,11993,-317
255,-2487,14025,-1945,12251,-399
-933,-2566,14073,-2041,11995,-337
-1610,4335,29102,-1801,-269,1279
510,-766,28668,-357,-2917,2295
-367,-1921,14045,3061,-2120,3062
2550,-6312,11738,3315,-1065,1789
-363,-3347,11985,3062,113,1275
-977,-1817,14029,2295,255,767
-718,-2025,13563,1021,173,511
-335,-3025,13037,511,255,255
-534,-2562,15356,511,161,129
-909,-1873,17149,510,123,-259
-467,-2355,17340,1022,73,5
88,-2949,14822,1530,250,-261
-1036,-2276,14846,2041,510,-285
-1546,-1993,14798,2815,767,-351
-825,-1714,14591,3062,1022,-271
255,-1228,14846,3068,1020,-283
1020,-1355,14029,2807,510,-383
510,-1427,14025,2303,510,-367
765,-1403,14332,2041,511,-347
212,-1395,14814,1789,255,-313
212,-1395,14814,1789,255,33
510,-1427,14814,1535,255,33
765,-1483,15093,1531,255,57
765,-2339,14296,1279,255,88
255,-1291,14543,1023,255,39
255,-1993,14838,1021,184,44
-463,-1889,15085,1021,255,84
1279,-1562,15061,1023,255,54
510,-2423,14790,1020,255,105
-283,-1953,15340,1020,255,89
255,-1865,14806,1023,255,72
1275,-2084,14798,1022,255,179
52,-1132,14575,1279,255,186
-355,-1682,14838,1275,255,147
44,-2439,14838,1279,255,54
168,-821,15332,1531,511,69
765,-1690,15077,1530,255,0
72,-1068,15101,1530,510,78
160,-1905,14838,1535,510,2
1020,-1268,14846,1531,510,59
-439,-1299,15300,1789,511,36
100,-2001,14838,1791,511,-263
12,-1236,14806,1791,510,91
152,-989,14543,1531,510,160
-395,-1793,14284,1789,765,79
124,-1746,15324,1791,767,5
-702,-1642,15101,1791,765,108
156,-1260,15356,1787,765,120
-897,-861,15093,2045,1021,205
-746,-1793,14316,2047,1021,255
765,-1092,14543,1791,1021,511
240,-1212,15607,1785,1020,511
196,-1730,15348,1785,1275,510
255,-909,15348,1787,1279,510
765,-1841,15085,1787,1531,511
255,-1435,15077,1531,1535,510
255,-1427,14814,1279,1789,765
255,-419,15567,767,1785,765
510,-933,15591,511,2045,767
-403,-1331,15555,238,2295,510
255,-1650,16113,60,2805,511
-391,-801,15854,-289,3323,510
255,-355,16085,-491,3570,510
255,-355,16085,-491,3570,511
-813,-857,15826,-565,3829,255
-594,-1323,16085,-881,4094,255
152,-1443,15101,-901,4351,255
-435,-909,15332,-929,4591,255
-614,-2100,15077,-1121,4861,255
-383,-1722,15563,-1163,5102,255
-415,-1100,15555,-1188,5371,255
255,-1419,14822,-1178,5630,255
-1570,-1188,15814,-1321,5610,255
44,-706,15316,-1419,5885,255
-566,-921,15300,-1385,6124,255
-562,-1929,15611,-1379,6391,510
-777,36,16101,-1377,6911,255
-526,-1001,16376,-1369,7149,255
-766,-1260,16575,-1401,7411,255
-287,-363,16575,-1417,8191,121
-395,108,16368,-1451,8415,160
112,32,16352,-1417,9181,34
-710,92,16372,-1427,9690,-259
-1052,-606,17149,-1475,9979,-395
-965,-865,16575,-1546,10743,-469
-785,96,16344,-1537,10967,-421
-857,-682,15822,-1385,11231,-481
-1483,-1339,15866,-1281,11519,-313
-1001,-1722,15870,-1217,11483,-257
-1196,-1411,15340,-1228,11770,-295
-833,-443,15045,-1225,12019,-351
-1244,-1260,14790,-1291,12019,-393
-1985,-2104,15308,-1226,12495,-449
-1626,-1220,15826,-1249,12543,-303
-2355,-1236,16077,-1291,12750,0
-2152,-1961,16113,-1475,13005,166
-1618,-2033,15834,-1553,13294,255
-2132,-1451,14798,-1889,13819,255
-2132,-1451,14798,-1889,13819,255
-2120,-849,15587,-2161,14027,255
-1331,72,15316,-2195,14312,255
-2403,-897,15599,-2294,14543,213
-2323,-969,15093,-2357,14822,255
-2355,-1722,14591,-2437,15053,222
-2833,-921,15332,-2439,15303,117
-2614,-821,15316,-2513,15327,255
-2228,-1291,14045,-2513,15349,255
-2758,-1754,14045,-2405,15571,255
-4204,-658,14073,-2210,15308,511
-4583,-726,14312,-2102,15095,767
-4049,-1786,14284,-1841,15309,1020
-4001,-2578,14591,-1889,15349,1279
-4204,-2248,14296,-2103,15571,1530
-4108,-1196,14061,-2216,15595,1785
-3810,-606,14073,-2214,15325,1785
-2706,-1036,14316,-2245,15357,1535
-2678,-769,14830,-2337,15357,1534
-2467,-1092,14591,-2277,15302,1275
-2068,-1730,13786,-2276,15340,1022
-3284,-1666,14073,-2247,15327,1021
-3220,-1244,13515,-2291,15045,1279
-4001,-1172,14041,-2289,14806,1275
-4654,-1140,12782,-2433,14846,1787
-4897,-2296,13292,-2483,14575,1785
-3937,-1570,13053,-2817,14559,2045
-4646,-2280,13021,-2817,14075,2303
-4017,-694,12782,-3105,13806,2303
-2993,-1307,13005,-3138,13547,2303
-4591,-1435,13260,-3345,13310,2043
-4049,-1283,13037,-3347,13055,2041
-4260,-1953,12244,-3475,12766,1785
-4905,-1124,12495,-3555,12511,1535
-4140,-901,11766,-3617,11989,1275
-5196,-1196,12543,-3681,11734,1020
-4846,-1355,11997,-3746,11254,767
-5897,-1961,12272,-3649,10967,767
-5802,-2849,11519,-3602,10495,1020
-6184,-1602,12511,-3457,10239,1021
-5802,-1706,11985,-3331,9723,1279
-5348,-2515,12527,-3106,9180,1275
-5260,-2387,11511,-2965,8959,1279
-4961,-1315,12248,-2853,8671,1021
-5802,-2806,13308,-2741,8447,765
-5196,-973,13276,-2581,8180,511
-5985,-578,13037,-2609,8178,255
-5411,-1355,14045,-2341,8189,202
-6057,-1538,12750,-2373,8178,30
-6403,-2598,13276,-2178,8170,76
-8268,-1650,13292,-2216,7911,85
-6017,-1857,13535,-2151,7921,65
-6280,-1140,13786,-2134,8166,60
-6152,-2519,13535,-2053,8415,255
-6467,-1371,13531,-1857,8702,255
-6025,-981,13260,-1729,8925,255
-6754,-2646,13276,-1505,8959,255
-6726,-2025,13037,-1483,9182,511
-7009,-2965,12543,-1610,9181,511
-6595,-2594,12766,-1593,9180,511
-7746,-1387,12798,-1809,9435,510
-6531,-1116,12798,-1825,9439,510
-6631,-574,12527,-1857,9212,765
-6977,-1658,12240,-1801,9182,765
-6280,-1499,12511,-2001,9212,765
-6822,-1268,11742,-2162,8447,767
-6822,-1268,11742,-2162,8447,1020
-7937,-2260,11005,-2211,8415,1020
-6722,-1841,10750,-2419,8160,1020
-6917,-1196,11260,-2531,7399,1020
-7619,-1379,11515,-2657,7142,1275
-7555,-1411,12021,-2629,6647,1279
-7746,-1291,11766,-2610,6631,1275
-7459,-1443,11766,-2641,6383,1279
-8838,-1236,12511,-2439,6141,1022
-8129,-853,12248,-2369,6143,1022
-7619,-1052,12252,-2083,6120,765
-6854,-1411,12798,-2001,6120,765
-8065,-853,12511,-1594,6136,765
-8260,72,11766,-1427,6383,510
-7842,-602,12495,-1305,6399,255
-8392,-1363,12240,-969,6646,255
-7523,-1156,12511,-1009,6639,141
-7778,-1363,12272,-805,6630,109
-7555,-1913,12276,-746,6631,63
-8161,-1833,11985,-415,6647,125
-8539,-391,11762,-291,6646,133
-8770,-1307,12017,-265,6631,55
-8344,-1538,10742,242,6654,-313
-8065,-1323,11742,255,6630,-299
-8065,-1483,11993,511,6655,-307
-8587,-1276,11989,511,6639,-319
-7969,-1626,11260,767,6655,-331
-8404,-1451,11770,767,6375,-373
-8396,-734,11730,767,6391,-329
-8196,-1188,11774,765,6137,-281
-8065,-1801,11487,765,5610,52
-8129,-2531,11734,511,5614,67
-8663,-1642,10997,510,5100,99
-8479,-1491,11220,510,4861,134
-8416,-1698,11475,255,4590,82
-7459,-1260,11483,255,4351,53
-8097,-686,11511,180,3831,-419
-8539,-1013,11228,-297,3833,-305
-9153,-1491,11511,-423,3582,-283
-8846,-1833,11762,-609,3582,24
-8033,-1554,11507,-625,3323,17
-8782,-1204,10455,-706,3068,97
-8834,-1355,10973,-781,3062,150
-8710,-762,11220,-893,3071,91
-8730,-1021,11511,-925,3062,115
-9874,-2088,10710,-969,2815,58
-8583,-734,11730,-933,2807,57
-8328,-2148,12029,-881,2813,-299
-8734,-2009,12021,-877,2813,97
-9041,-2068,11738,-773,2813,117
-8543,-2260,11993,-785,2805,94
-9105,-2056,12527,-518,3061,213
-8854,-2403,11762,-347,3062,213
-8854,-2403,11762,-347,3062,156
-8324,-1889,11479,151,3061,154
-8643,-1650,10965,255,3071,255
-8416,-1148,11479,255,2815,255
-7874,-1674,10750,255,2807,255
-8264,-1977,11993,511,2559,255
-8782,-1929,12252,255,2559,255
-8200,-817,11997,255,2295,255
-8663,-1650,11738,255,2303,255
-8475,-1236,11479,255,2043,225
-8328,-1411,11228,255,2042,-273
-8774,-1172,11005,511,1787,-321
-8854,-1108,10455,511,1531,-441
-9097,510,10965,510,1275,-630
-8583,-1252,11228,255,767,-657
-8718,-1642,9694,255,511,-746
-9113,-949,10710,255,255,-785
-9802,-1618,9981,255,-501,-805
-9117,-1044,9471,255,-793,-829
-9372,-1228,9726,170,-1257,-889
-8846,-1738,9722,94,-1937,-873
-8778,-1586,9467,-303,-2375,-893
-8973,-766,9212,-337,-3314,-881
-8918,-1116,8670,-461,-3682,-1005
-8722,-889,9180,-754,-4617,-1089
-8898,-1044,9180,-734,-5029,-1131
-9428,152,9467,-977,-5825,-1220
-9244,255,9435,-1066,-6216,-1171
-9627,-1140,9722,-1249,-6818,-1161
-9037,-913,9949,-1289,-7077,-1044
-9483,-710,9949,-1521,-7682,-1042
-9555,-714,10236,-1507,-7937,-997
-9181,-1451,10965,-1674,-8531,-1034
-8543,-1068,11252,-1618,-8793,-985
-8332,-1132,10750,-1577,-9228,-937
-7937,-2025,10487,-1449,-9499,-909
-8655,-1236,10236,-1425,-10065,-841
-8858,-2025,11487,-1435,-10581,-849
-7842,-793,10965,-1459,-10886,-837
-7714,-1164,10742,-1393,-11267,-877
-8129,-1817,11220,-1379,-11539,-1025
-7651,116,11511,-1257,-11841,-1139
-8288,-877,11483,-1089,-12113,-1250
-7746,-459,11997,-985,-12225,-1546
-7874,-606,12021,-809,-12425,-1570
-7332,-714,11479,-477,-12806,-1801
-7396,-1451,11487,-349,-13257,-2099
-7009,-1331,10750,114,-13322,-2210
-7587,-1084,10965,255,-14402,-2387
-7427,-2084,10487,255,-15428,-2547
-6599,-1658,9945,255,-16065,-2737
-7396,-1634,9471,255,-17418,-2817
-7137,-1276,8957,255,-18050,-2993
-7073,-1985,9439,245,-19333,-3025
-8065,-1387,9439,211,-19763,-3061
-8404,-941,9471,159,-20649,-2929
-7364,-1937,10487,89,-21005,-2757
-7714,-1929,11511,-313,-21673,-2613
-6471,-1228,11479,-457,-21793,-2423
-6471,-1531,12543,-499,-22409,-2227
-5993,-670,12543,-590,-22561,-2213
-5089,-2403,12750,-566,-22791,-2243
-5834,-989,13037,-589,-22919,-2134
-4391,-1371,13021,-554,-23077,-2025
-4495,-1921,12798,-507,-23329,-1953
-4846,-1212,12766,-479,-23587,-1857
-3985,-2566,13005,-670,-23971,-1754
-3953,-1825,13037,-630,-24481,-1825
-3571,-2419,13308,-617,-24721,-1697
-3682,-2339,13021,-566,-25229,-1849
-3172,-1913,13531,-399,-25353,-1841
-3730,-989,13822,5,-25619,-1977
-2913,-1228,13531,255,-25756,-2183
-3204,-327,14045,255,-25873,-2467
-3459,-933,13818,767,-26009,-2581
-2391,-1124,13308,765,-26113,-2802
-2786,255,13790,1020,-26627,-2917
-2487,-630,13531,1279,-26759,-3140
-2323,-1546,13515,1531,-27393,-3281
-2754,-1546,12543,1791,-27521,-3425
-2993,-1913,13260,1785,-27794,-3473
-3124,-1475,13567,2043,-27649,-3329
-3061,-1323,14284,2295,-27521,-3297
-2164,-1594,15615,2303,-27141,-3251
-1618,-710,15575,2558,-26756,-3363
-1395,-746,15826,2551,-26137,-3313
-1531,-347,15866,3068,-25477,-3283
-1467,-1132,15822,3319,-25246,-3331
-977,-1953,15053,3578,-24708,-3218
-1076,-2343,15332,3571,-24481,-3029
-1084,-1467,15587,3582,-24065,-2710
180,-1307,15308,3574,-23937,-2403
-981,-1315,15324,3582,-23425,-2230
765,-2339,15834,3833,-23206,-2194
1020,-1523,16575,3839,-22819,-1897
1275,-1770,16352,3831,-22409,-1793
1530,-2598,16121,4083,-22313,-1377
1530,-1132,16121,4081,-21763,-1276
5885,-781,21695,96,-20241,-809
-1499,6383,32511,-7234,1275,-673
5630,765,32511,-5411,3582,-2407
6399,3323,4088,-499,2807,-2578
-3156,-4993,15571,3070,3070,510
3315,-6471,21759,5611,3315,1275
3578,510,13806,5101,2043,-542
765,1534,10495,1535,1279,-909
255,255,8670,-341,511,-1681
1785,-1897,13276,-3090,119,-1459
1789,-813,16069,-3283,189,-1257
1789,-813,16069,-3283,189,-1137
1530,-881,16639,-2309,255,-1035
1785,-1969,17149,510,511,-977
2040,-2116,16830,1534,510,-965
2044,-1013,15567,2042,511,-1021
1534,-1299,13515,1535,255,-1067
1020,-1228,13053,255,212,-1185
510,510,12798,63,-377,-1361
510,-1570,15045,76,-521,-1266
255,-1068,14830,510,-437,-1241
765,-347,15324,511,-439,-1291
255,-758,14846,765,-423,-1044
68,-813,13535,192,-582,-849
-383,-809,14567,-749,-717,-726
-383,-809,14567,-749,-717,-701
-614,-809,14567,-825,-717,-701
-439,-1044,14284,-945,-769,-669
220,-511,14583,-1180,-809,-594
160,-809,15045,-1170,-873,-477
765,255,14551,-1170,-717,-517
1020,-809,14575,-1013,-873,-467
510,28,14838,-1218,-853,-557
255,24,14567,-1363,-901,-522
510,-558,14838,-1689,-949,-582
-590,-921,14830,-1809,-993,-487
-538,-1212,14846,-1849,-917,-445
-259,-467,14814,-2116,-929,-459
-347,-809,15818,-2194,-957,-339
-379,-1100,15348,-2597,-1068,-337
-793,-1602,14591,-2901,-1097,43
255,-351,14798,-3105,-1066,74
-347,-614,14328,-3379,-1243,111
-518,-630,14073,-3969,-1266,115
255,244,14296,-4266,-1387,106
765,8,14077,-4681,-1467,82
255,-1387,14061,-4941,-1489,100
-666,-730,14790,-5260,-1529,109
765,-1252,14591,-5323,-1553,117
255,-1515,15061,-5547,-1483,156
255,-929,14830,-5770,-1419,222
1020,-2196,14328,-6308,-1385,255
255,-1857,15332,-6595,-1499,255
-678,-1299,15308,-6657,-1449,255
510,-1068,14543,-6818,-1329,143
100,-750,15069,-6850,-1387,9
-762,-1762,14551,-7073,-1419,-361
765,-1252,14838,-7235,-1538,-383
510,-1005,15332,-7745,-1546,-503
510,-885,14284,-8001,-1633,-513
510,-2228,14838,-8599,-1641,-558
255,-1554,14790,-8910,-1626,-489
510,-1578,14328,-9619,-1554,-475
-411,-1849,14551,-10201,-1529,-574
255,-654,14284,-11153,-1562,-702
765,-1515,14041,-11539,-1650,-725
-467,-1849,14830,-12290,-1545,-817
4,-2164,13802,-12431,-1610,-769
-451,-2148,14567,-12869,-1610,-789
156,-1260,14284,-12937,-1483,-805
-495,-2200,14591,-13129,-1578,-893
255,-2391,14543,-13125,-1626,-849
510,-2483,14567,-12929,-1601,-1001
3829,-4300,28572,-5282,-1833,-1801
1530,4084,5116,-1889,244,-3202
-271,1020,16830,-2264,247,-4290
1534,-5284,15069,-3730,-514,-4108
1020,-4869,13774,-3617,-897,-3905
510,-3204,13005,-2562,-666,-3841
-303,-3025,14328,-2273,-461,-3361
-291,-3124,14830,-2389,-526,-2917
-901,-3284,15093,-2467,-709,-2529
510,-3746,14583,-2433,-717,-2355
765,-4144,14551,-2471,-762,-2009
765,-2068,14806,-2821,-933,-1897
1020,-2582,14077,-2977,-1129,-2009
765,-1746,14567,-3013,-1148,-2116
1785,-1562,14830,-2661,-505,-2435
1279,-1993,15316,-2503,193,-2721
1534,-1531,15308,-2629,216,-3235
1275,-2375,15308,-2997,236,-3281
2040,-2260,14822,-3139,255,-3457
1020,-2865,14846,-3409,255,-3459
1530,-2758,14798,-3331,255,-3443
765,-3172,13802,-3363,255,-3425
1789,-3969,14806,-3443,255,-3203
765,-2562,14077,-3300,255,-2949
765,-3555,15053,-3284,255,-2869
2303,-2993,14559,-3170,233,-2802
2805,-4200,14822,-3252,239,-3013
1785,-2311,14575,-3331,234,-2917
2295,-2913,14822,-3523,248,-2945
3068,-3316,15061,-3698,255,-2865
2044,-4678,15324,-4363,53,-2690
1534,-4017,16352,-4845,43,-2017
1534,-2642,15340,-5417,12,-1913
1279,-1801,16356,-5641,121,-1913
2303,-2419,16364,-6595,200,-2017
2040,-2790,17595,-7267,59,-1977
1020,-1355,17404,-8525,126,-1417
2040,-1586,17149,-9037,-343,-781
2813,-2017,16894,-9601,126,-1361
3574,-821,16332,-10901,110,-1738
1275,255,18109,-11331,57,-2690
1789,-2997,17340,-13641,255,-2741
1789,-2997,17340,-13641,255,-2610
1785,-3363,16830,-14853,255,-2403
2550,-3092,16348,-15361,255,-2674
1279,-3300,16344,-16193,255,-2657
1789,-2658,16575,-16657,255,-2678
1789,-2917,16575,-17841,255,-2837
1530,-3220,17149,-18329,511,-3075
765,-3778,16364,-19349,511,-3188
1020,-3634,16077,-19761,511,-3441
1530,-4909,15053,-20385,511,-3491
1275,-5037,15826,-20644,255,-3601
1020,-5033,14567,-20739,255,-3746
-841,-4587,14559,-20485,210,-4325
-849,-5348,15591,-20113,-801,-4417
-1459,-5316,14583,-19635,-1169,-4705
-1028,-5132,14077,-19459,-1786,-4937
-2323,-6017,13563,-19349,-1634,-4941
-1722,-5196,13770,-19506,-1641,-5156
-2072,-5507,13531,-19586,-1193,-5124
-2228,-5929,13260,-20353,-577,-5226
-1921,-6089,13806,-20484,-375,-4901
-1570,-6726,13770,-21129,255,-4673
-1443,-5515,14029,-21538,255,-3841
-989,-7619,13551,-22018,510,-3090
-2535,-8714,13260,-22401,510,-2439
-2407,-8097,11479,-22057,767,-2033
-1268,-7364,11985,-20615,765,-1881
-1809,-6467,12511,-19713,1021,-1553
-1722,-8906,11005,-18439,1020,-1259
-821,-7778,11479,-18345,767,-569
-594,-8961,11479,-18233,45,38
765,-9730,11252,-18337,-629,767
192,-9539,10997,-18451,-1289,1020
255,-8220,11252,-18337,-1403,1279
-530,-7651,10710,-17586,-1345,1279
1020,-7523,12543,-17297,-1169,1020
1275,-7874,13790,-16667,-749,1023
1789,-8161,13292,-16438,-558,1275
2295,-8455,12543,-16530,-413,1279
2550,-7746,12276,-16787,-495,1021
1785,-8097,12021,-16777,-785,767
2303,-8161,12244,-16950,-921,511
2303,-8969,13515,-16930,-1051,510
3578,-8531,12766,-16819,-1021,255
4088,-7969,14316,-16825,-997,255
3582,-8204,15093,-16797,-917,-277
2813,-6949,15579,-16779,-913,-505
1785,-6471,15348,-16661,-969,-1244
2044,-7300,15854,-16548,-989,-1777
1020,-7077,15862,-16129,-1067,-2182
1789,-7746,15077,-15937,-1347,-2677
1020,-8161,14806,-15745,-1601,-2865
765,-8842,12252,-15683,-1729,-2869
-602,-8591,11260,-15617,-1849,-2833
-2068,-8033,11220,-15428,-1770,-2515
-2164,-10822,10200,-15301,-1593,-1817
-1977,-10834,9212,-15173,-1363,-1331
-2626,-10515,8164,-15428,-1363,141
-3395,-11089,6893,-15617,-1355,767
-3140,-10579,7148,-16422,-1228,1279
-2806,-8985,7148,-16779,-481,1535
-2168,-8065,7674,-17301,767,1785
-2120,-8065,8925,-17444,1530,1534
-1602,-8667,10710,-16803,4092,1275
-1602,-8667,10710,-16803,4092,1275
-491,-8794,9471,-16653,4591,1275
-582,-8280,10973,-16129,4845,1530
-538,-9109,11738,-15938,5355,1530
-586,-9619,11228,-15297,5355,1531
255,-8842,11515,-15042,5375,1530
1020,-8902,11228,-14401,5626,1535
255,-9667,11985,-14089,5614,1279
255,-10009,11774,-13441,5355,767
510,-11137,10487,-13189,5118,767
1020,-10185,9722,-12878,4847,765
1530,-11029,8702,-12938,4590,767
1530,-11077,7933,-12929,4351,511
2044,-11201,9439,-13185,4080,510
2805,-10898,7933,-13197,3831,250
2805,-11025,9180,-12874,2813,-1401
2550,-18711,31182,-9545,42,-1401
2550,-18711,31182,-9545,42,-2562
6136,-10834,5869,-4551,2043,-933
6120,-9938,9981,-5921,511,-1276
3829,-12747,10232,-6627,230,-1666
2558,-12356,10236,-8199,-1323,-1593
2813,-11137,8925,-8455,-1673,-1985
2558,-11412,8925,-8585,-1857,-2323
1530,-11603,9212,-8328,-1833,-2629
1785,-12432,9180,-8161,-1706,-2853
510,-10647,9212,-8224,-1650,-3236
44,-12424,9471,-8280,-1762,-3170
-359,-12177,10232,-7969,-1945,-3061
-602,-11842,9981,-7969,-2001,-2849
72,-11201,9726,-7649,-1761,-2833
-391,-11651,11475,-7300,-1529,-2561
-1028,-10946,12244,-6469,-985,-2375
-2120,-13324,10997,-5163,-259,-1913
-1969,-11077,10204,-5259,511,-2371
-3682,-11922,10236,-4654,1023,-2131
-3427,-10902,9439,-4481,1535,-2210
-2483,-12356,9212,-4049,1789,-2257
-2821,-12049,8702,-3857,2043,-2246
-2136,-12225,8702,-3297,2551,-2182
-1586,-12241,9212,-2661,2550,-2305
-889,-11794,9467,-2230,2558,-2323
255,-11013,9439,-1754,2558,-2311
255,-13261,9212,-1698,3323,-2401
1534,-13380,9467,-1411,3578,-2598
2558,-10627,10487,-813,4085,-2455
2044,-9292,10973,510,4351,-2193
2044,-9483,12798,511,4606,-2017
1789,-9412,12782,511,4607,-2017
2813,-10822,13774,245,4351,-2114
2813,-10695,12750,-461,4606,-2199
2558,-10137,12543,-545,4351,-2292
2295,-10691,12276,-550,4351,-1897
1534,-12424,11487,255,3571,-1985
-554,-12810,11730,1020,3315,-2403
765,-11970,10973,2813,2295,-2547
1785,-11523,7921,3829,1791,-2726
1789,-13380,6120,4606,1022,-2694
1789,-13571,4861,4351,510,-2625
765,-13635,3837,4083,255,-2646
2044,-14536,3060,3835,-501,-2690
1275,-13324,2550,3835,-610,-2901
765,-13962,3582,3833,-665,-3329
765,-13508,3570,3837,-625,-3537
1279,-12739,5116,3829,-411,-3713
1020,-12751,5116,3835,-369,-4033
765,-12177,5100,3583,-385,-4134
510,-11906,6638,3571,-419,-3969
-558,-11731,7156,3315,-873,-3873
-415,-10643,9180,3575,-1084,-3665
72,-9794,8670,4083,-1459,-3618
-650,-11396,9180,4351,-1497,-3379
-4463,-15233,10710,12240,1279,-553
255,-7041,11005,13567,255,-3153
-2355,-9097,10487,14027,765,-2451
-3953,-17851,6630,11995,-293,-570
-1021,-11587,7917,11770,255,-570
-1021,-11587,7917,11770,255,-670
-287,-7619,8415,13770,765,-1561
-2770,-7810,9949,14799,2303,-2533
-3268,-11778,9439,14280,2551,-2773
-1268,-12611,7929,14029,3315,-2325
255,-12942,7156,13292,3583,-2067
-766,-13834,8180,13531,3575,-1403
-335,-12428,9180,13819,3327,-1169
-1905,-11348,10487,14057,2807,-1289
-1778,-8097,13567,16111,1020,-2181
510,-8161,11475,16089,767,-1499
3060,-11986,11483,15579,255,-1369
3315,-13316,10236,15300,255,-1076
3060,-12241,9949,15308,183,-889
2040,-11539,10204,15332,42,-765
1530,-11268,10455,15595,37,-646
1279,-9730,10236,15850,-305,-629
2303,-10129,10965,16111,-325,-753
2040,-10001,12021,16109,12,-746
1534,-9029,11515,16328,-291,-734
1275,-10388,11774,16323,-389,-449
1020,-11794,9726,16083,-626,130
255,-11141,11483,15859,-1090,511
-323,-9436,11730,15811,-1180,765
765,-9236,12244,15819,-1363,767
-1307,-9730,11005,15826,-1252,511
-383,-10129,11742,15811,-1257,511
-694,-10129,11260,16123,-1297,510
510,-9475,11228,16321,-1273,510
108,-9938,11479,16333,-1265,510
8,-9436,11252,16575,-1067,511
-865,-7937,11738,16830,-1059,511
-399,-8774,12495,16357,-1137,511
148,-8352,12021,16368,-1146,511
-526,-8352,12021,16639,-1146,511
-566,-8451,12511,16895,-1108,255
-526,-9033,12029,17342,-1393,-365
-726,-9300,11770,17663,-1076,-489
-578,-7778,11515,17406,-957,-325
255,-7874,11515,17404,-526,-417
255,-8001,11228,17595,50,-301
765,-8161,11997,17595,255,6
255,-9930,12025,17085,510,765
1785,-9348,11519,16830,511,767
1534,-8587,12276,16894,765,1021
-287,-9101,13806,16639,765,1275
510,-6057,13515,17659,168,1021
1789,-5834,14583,17915,-873,1020
3323,-5929,14328,17663,-1076,1279
3060,-6627,13786,17406,-1100,1279
3570,-6631,13519,17407,-1036,1534
3068,-5770,14280,17343,-1099,1275
2303,-4555,14575,17595,-1083,1275
2040,-4742,13818,17343,-993,1279
2550,-3025,14073,17404,-941,1020
1530,-2901,14575,17341,-761,1021
1275,-4112,14814,17087,-726,1279
1534,-4001,15611,17085,-917,1279
1275,-3507,15563,16575,-945,1534
1279,-2566,15563,16359,-1013,1530
1020,-1252,15348,15826,-750,1279
1020,-1252,15348,15826,-750,1275
765,-2017,15866,15053,-686,1279
48,-2551,16328,14806,-674,1530
-837,-3857,16352,14301,-757,1534
-1411,-6977,15583,13547,-713,1535
-1594,-6403,13531,13005,-781,1531
-2339,-7077,12252,13293,-925,2045
-2068,-9025,10718,14303,-857,2558
-1849,-10049,9467,15575,-809,2813
-1028,-8404,9981,16382,-977,3063
-1044,-6248,10200,18105,-1058,3063
1020,-5762,11483,18615,-1027,3323
2303,-5348,12782,19135,-1097,3319
3060,-4260,13519,19455,-1065,2813
3060,-1913,13786,19647,-889,2807
3578,-4176,14838,19703,-853,2550
1789,-3041,14296,19453,-817,2558
2550,-2551,14838,19390,-761,2041
2303,-981,16117,18870,-689,2047
1789,-730,16125,18679,-678,1787
1785,255,16575,17915,-738,1785
1530,-1642,16352,17663,-694,1787
1020,-654,16085,16894,-697,1535
-2598,4606,32511,14798,-481,1275
-2343,7921,32511,4845,-1013,1020
2295,1279,22205,2303,-1122,767
-1786,-766,17854,1020,-698,1275
510,1785,17340,211,-1130,2042
-4877,1020,16332,255,-1267,4590
-937,-3268,15559,-1074,-1259,4606
255,-5069,14535,-1521,-415,3571
1020,-5411,14077,-1449,69,3327
1279,-4136,15077,-1227,-681,2807
1279,-3698,14559,-1186,-813,3071
1275,-3443,14567,-933,-741,3068
-415,-4140,13053,-586,-673,2813
-447,-4614,14061,204,-653,2813
-901,-7778,14284,255,-953,3575
1275,-7459,13551,765,-1138,3833
1785,-2961,13563,1279,-1075,3570
1530,-1897,15814,1531,-881,2805
1534,-2642,17404,3327,-299,2045
765,-1642,16380,4335,255,1279
255,-2694,15332,6383,255,1023
1020,-3092,15324,6909,510,767
765,-4081,14332,7151,767,765
255,-4240,13818,7158,510,1020
255,-3841,14057,6903,511,1275
-495,-3172,14830,6647,511,1531
240,-1084,14790,6909,511,1275
1020,-1252,15611,7142,765,1020
1530,-941,15356,7148,765,765
765,-1817,14332,7658,767,510
1279,-1499,15045,7678,767,510
510,-1068,15101,7909,767,511
765,-1172,14559,7913,765,255
765,-1809,14838,8175,511,255
255,-698,15045,8415,510,61
255,-2180,14328,8671,511,66
765,-750,15053,8703,510,-279
255,-1666,15077,8957,510,24
510,-638,15332,8925,511,35
1020,-626,14559,8703,510,-293
255,-1499,14535,8671,765,24
510,-1754,14830,8415,767,79
-742,-965,14591,8164,767,163
255,-1100,15603,7140,767,255
255,-1562,14543,6646,765,195
76,-1315,14575,6141,511,255
-467,-989,14790,5101,510,255
255,-1347,14312,4606,511,255
255,-1650,15308,4335,510,255
255,-1116,14798,3839,510,255
-271,-853,14559,3571,510,181
88,-662,14838,3323,255,253
255,-1961,14830,3061,255,219
510,12,14057,2559,255,234
-487,-1379,14567,2295,255,229
765,-901,14822,2040,255,160
255,-1562,15061,2046,255,214
255,-435,15069,2047,255,210
-582,-1036,15356,2043,511,125
252,-686,14822,2295,510,255
255,-1538,14806,2815,510,226
1020,-913,15332,2559,510,213
-817,-925,15300,2551,511,255
510,-821,14300,2550,511,255
255,255,15077,2303,510,255
-594,-1076,14575,2551,510,511
255,-734,14551,2303,765,510
104,92,15093,2558,510,510
-439,-909,14280,2295,511,511
255,-1060,14838,2303,765,511
510,-566,15053,2047,765,511
204,-1116,15093,1789,765,511
-574,-606,15061,1785,767,510
510,-742,15324,2042,765,510
252,68,15069,2046,767,510
16,-686,14806,2550,1022,767
-762,-562,14543,2550,1023,767
510,-845,15045,2551,1023,510
-263,-702,15069,2558,1275,511
1020,-1570,14559,2813,1279,511
255,255,14822,3062,1275,245
255,-897,15093,3327,1279,222
510,-467,15599,3319,1279,74
510,-825,15077,3583,1531,-259
1275,-319,15587,3825,1531,-909
255,1020,16097,4591,2047,-1401
765,255,15858,5102,2303,-1681
1020,-817,14838,6375,2303,-1706
8,-933,14838,6646,2303,-1554
40,-530,14830,6647,2551,-1305
-789,-785,14559,6901,2303,-1260
-805,510,14822,6639,2303,-1115
-447,510,14846,6895,2558,-769
255,-1291,14790,6911,2558,-542
-503,-1140,15085,6901,2558,63
-399,-419,15348,6655,2550,116
-1084,765,15316,6895,2558,74
4,255,14806,6903,2551,23
-674,-678,14583,7159,2558,120
76,-777,14575,6909,2558,196
-530,-1459,15069,6911,2558,255
76,-1180,14559,6885,2303,511
-885,-371,14575,6383,2303,767
-949,510,15069,6391,2295,765
-1068,1020,15324,6646,2303,765
244,1020,15838,7149,2295,767
510,1020,15348,7655,2550,765
255,255,15340,7917,2558,511
765,510,15324,8703,2559,765
255,510,14838,8959,2807,510
-383,1020,15101,8959,2558,765
108,1534,15045,8957,2559,767
1020,510,15101,9214,2558,767
236,1789,16101,9214,2550,765
200,1020,15607,9471,2551,510
1530,1275,16109,10236,2303,255
1275,1534,16575,10463,1787,255
1275,1789,17599,10999,1530,255
2550,2303,17918,11763,1279,189
765,2044,16894,9727,-1379,255
3068,2295,16639,10711,-689,227
2813,255,19890,13567,-1140,-381
1020,-817,23990,14073,-1259,-829
-283,4861,8925,8957,-3443,-565
510,765,17850,9949,-4547,-427
-1068,-1363,16894,10711,-5061,-481
-1419,236,15567,10997,-5697,-491
-1610,510,14814,11260,-5833,-614
-1626,765,15316,11255,-5866,-557
-1538,1275,15814,11479,-5794,-522
-1658,1020,15854,11743,-5281,-529
-1140,1534,15862,12511,-5162,-381
-2200,1020,16575,12511,-5218,189
-2578,-299,15858,13023,-5219,255
-2323,2044,14822,13292,-5219,510
-1730,1530,15587,13790,-5069,767
-1323,2040,14575,13563,-4298,767
510,3319,14798,13551,-3714,767
510,2550,14798,13807,-2865,1020
765,1785,15591,14025,-2581,1023
1530,3825,16575,14535,-2487,1022
510,2813,16830,15069,-2545,1020
255,3060,16830,15855,-2677,1023
-1268,3837,18105,16338,-2774,1275
-511,2813,19133,17914,-2849,1534
-379,2558,17340,18360,-2865,1789
1020,2303,18428,18169,-2817,2295
1279,3837,16830,17405,-3123,2550
2805,3060,16830,16575,-3300,3323
2040,4335,15846,15835,-3282,3575
2558,4606,17085,15871,-3217,3825
510,3315,17149,16109,-3075,4092
510,3315,17149,16109,-3075,4089
-2423,3319,16639,16105,-3491,3839
-2945,2813,15571,15867,-4489,3315
-2311,4080,14029,15332,-4933,3315
-1897,4080,12244,14815,-5220,3323
-2515,2295,11252,14073,-5121,3319
-2391,3315,9726,13802,-4846,3323
-2515,4351,9726,13310,-4304,3071
-2770,4845,9467,13053,-3969,2813
-678,5100,9977,13053,-3698,2558
-730,5116,12272,13021,-2917,2046
255,6140,14312,13055,-2419,1789
44,5630,16639,13293,-1491,1530
156,6630,17149,14798,-941,765
510,6893,17850,15340,255,510
92,7411,20926,16330,767,-309
765,7917,21691,17087,1279,-626
-443,7929,21420,19125,2295,-1050
255,6909,21500,20223,2558,-1577
510,7650,21181,22203,2805,-1841
765,7164,19711,23031,3327,-2166
1020,5881,18870,24767,3323,-2246
1530,5869,17663,25535,3315,-2385
2303,5869,17085,26363,3060,-2757
2295,6399,15854,26585,3062,-2929
3327,5626,15607,26333,3063,-2789
3068,3582,14316,25851,3061,-2519
2813,3582,14025,25279,3062,-1538
2805,4351,13021,23540,2295,-861
1789,6391,10495,22522,2040,255
2303,6124,7905,15827,1279,1021
1534,5881,11220,16367,510,238
2813,8415,15559,18687,1279,767
2558,10204,14567,17663,1275,1275
510,8184,13037,16374,765,1275
1279,5885,13551,14815,767,1535
510,6630,14045,15045,255,1789
-1100,7148,14316,15587,255,2295
-1419,8168,14061,15867,241,2295
-1252,8168,12252,15603,-261,2295
-1180,8168,11993,15603,-419,2047
-315,8447,10710,15555,-533,1785
255,7164,9726,15615,-479,1791
510,7395,8176,15583,-625,1785
765,7662,8670,15319,-738,1534
1275,8925,8176,14583,-869,1535
510,8670,8415,14559,-953,1530
510,8447,8957,14332,-1026,1275
255,8670,9726,14300,-1001,1275
-1116,8415,9471,14285,-1164,765
-1642,9180,8670,14791,-1387,510
-1212,9722,8670,14799,-1393,511
-622,9690,6893,14281,-1162,511
-479,8670,7415,13819,-989,255
-638,9467,7164,13567,-829,255
148,9435,7933,12798,-873,255
-634,8957,7658,12782,-1220,179
-271,9180,7164,13021,-1313,93
765,9180,6391,12254,-1475,-271
765,9435,6120,12250,-1521,-263
1020,8925,6646,12027,-1570,3
510,9694,7411,11511,-1546,152
80,8702,6391,11228,-1377,173
255,8925,7415,11005,-1162,255
40,9212,7662,9977,-929,255
765,8670,6630,9439,-489,510
-367,8925,5626,8927,-281,765
-355,9471,5881,7907,58,765
510,9722,5630,7159,116,767
1020,10204,5869,6654,-465,767
1020,9945,5614,6122,-573,767
1279,9722,5885,5118,-789,767
1275,9471,6136,4845,-1083,765
1275,10750,6391,4351,-1169,765
1275,10718,6383,3582,-1299,767
1275,11228,6901,3574,-1465,765
1279,10455,7674,3323,-1403,1021
2040,9945,7905,2813,-1554,1022
2044,10495,8164,2551,-1705,1023
255,10200,7411,2046,-1793,1275
765,10232,6646,1791,-2148,1279
510,10204,6399,1535,-2276,1535
510,10965,6893,765,-2545,1530
255,10232,6375,511,-2785,1535
765,10232,5881,186,-2885,1534
765,10236,5869,-387,-3300,1535
240,9981,5881,-718,-3457,1789
255,9726,5371,-1315,-3873,1535
255,9981,6646,-1609,-4290,1785
-279,8925,5355,-1857,-4682,2043
255,9949,5355,-2630,-5037,2041
1275,10973,5614,-2981,-5569,2295
255,10742,6124,-3379,-5642,2295
-690,11774,7140,-3585,-5411,2295
765,10236,7419,-3537,-5057,2046
-395,11228,8670,-3507,-3841,2047
255,10204,7925,-3505,-3633,2042
510,10236,7925,-3681,-3457,2042
255,10463,6901,-3841,-3298,2046
765,10487,6893,-4359,-3169,2045
255,9726,6391,-4738,-2949,2040
1534,9981,6391,-5515,-2853,1787
1275,10236,5885,-5985,-2645,1791
1530,10718,5881,-6753,-2535,1791
1534,9977,6391,-7009,-2403,1534
1530,10200,7140,-7298,-2194,1279
1530,10236,7933,-8001,-1569,1020
1534,10236,7933,-8001,-1569,1022
1020,10455,8415,-8411,-1235,1020
2040,9981,8925,-8577,-1013,1021
1275,10232,8925,-9049,-893,767
1275,10236,9212,-9361,-669,765
1785,9977,7658,-9882,-582,765
1789,8702,7909,-10073,-562,767
1789,8925,7917,-10452,-550,1023
3068,9439,7662,-11157,-637,1023
2805,8925,7164,-11523,-686,767
2558,9212,6391,-12495,-726,767
2040,9180,5885,-13006,-730,765
1789,8670,5375,-13705,-777,1023
1534,8160,4092,-15045,-881,1022
1020,7913,3323,-16001,-969,1534
510,8670,3060,-17937,-1081,1787
510,7929,2303,-18835,-1281,2045
510,7670,2805,-19761,-1419,2550
-586,6630,3068,-21923,-1658,2815
20,7156,3825,-22789,-1762,3068
510,7156,3574,-24353,-1753,3315
1020,7140,4845,-24963,-2025,3327
2040,6383,5355,-26113,-2116,3579
2813,6893,7164,-26759,-2515,3574
3060,7909,9180,-27158,-2566,3327
3315,6893,12782,-27141,-1977,3068
4092,8702,14567,-26266,-1385,2295
3570,8180,18364,-25489,255,2042
3582,8670,20468,-23554,1020,1531
4606,7164,21755,-22564,1787,1279
4861,8168,23205,-20769,2045,767
6399,8670,23998,-19857,1789,511
7395,8925,25755,-18961,1531,190
7913,9435,26333,-17193,1530,-383
8670,9180,25755,-16066,1275,-1202
8925,7925,24548,-14341,1535,-1689
9949,7423,23548,-13769,1791,-2449
8160,7654,21934,-13002,1789,-2913
6140,7678,17404,-12998,1535,-3666
5610,8160,14551,-13577,765,-3841
3068,6638,9981,-14209,510,-4109
3068,4845,8670,-15937,255,-4049
3060,4606,4351,-17041,242,-3681
3068,4335,2550,-19715,220,-3329
1789,3068,-594,-21166,-385,-2977
255,2550,-1395,-24449,-877,-2168
-1108,2813,-3013,-26258,-2033,-1793
-857,2558,-3363,-29834,-2531,-961
-849,1279,-3172,-31621,-3507,255
-1084,1275,-3029,32640,-3841,510
-1140,1275,-550,32640,-4814,767
-2790,510,-467,32640,-5666,1530
-3252,765,510,32640,-7425,2303
-3204,510,3825,32640,-8195,3582
-3778,148,6375,32640,-8770,3831
-2184,-431,11228,32640,-9037,5118
-1009,-953,14029,32640,-8985,5627
-678,-702,17850,32640,-8714,6631
0,-295,18878,32640,-8605,7151
1020,2044,20157,32640,-7651,7419
1534,4861,25245,32640,-5793,5881
1785,9467,32511,32640,2303,5355
4335,14790,32511,32640,9435,1275
232,14575,32511,32640,20149,-1505
-11476,6654,32511,32640,19703,-1089
-4686,-4873,31931,-19859,15607,1791
2295,-6913,31429,-11221,13053,5871
2550,-4292,25022,-10499,8671,6895
2295,4861,20926,-12177,7151,6639
1530,6140,15356,-13065,5375,5371
765,6136,15085,-14081,5355,4845
1789,4335,13551,-14089,5865,4093
2303,2303,13308,-13133,6391,3574
2040,255,13053,-12609,6646,3061
2303,-674,12495,-12292,6638,2558
1020,-869,10487,-12878,6138,2559
765,1020,9945,-14209,5881,2303
510,1279,9435,-17458,5883,2040
510,1279,9690,-18817,6140,1789
255,1530,10200,-20516,6655,1791
765,510,13519,-21417,8671,1789
-1084,-491,13519,-21505,8703,1535
-865,-1140,13774,-21257,8925,1535
-1323,-766,14543,-21761,8670,2044
-1419,765,14838,-22186,8165,2047
-1873,-682,14838,-22821,7917,2042
-2339,-773,14814,-22821,7659,2044
-1188,-514,16372,-21793,7931,2044
-1180,1020,17085,-20997,8415,2046
-626,1789,17918,-18817,8447,1791
104,1020,19898,-15555,8185,510
1789,2550,20974,-14465,8165,510
1789,2550,20974,-14465,8165,182
2805,2040,21484,-12930,7935,-614
2558,1789,20926,-9938,7395,-949
2558,1279,19962,-8467,6375,-1969
2044,3060,20735,-6089,5883,-2597
2303,3060,19639,-5097,4606,-3873
8925,3319,26042,-3507,2045,-4487
7650,1279,30919,-2419,-3025,-4293
3582,3578,20209,1022,-2817,-4681
3323,255,12021,2045,165,-5515
3574,-1499,13567,3061,1275,-6017
3578,-2913,15599,3323,2295,-5770
765,-3937,14029,3060,2043,-4778
510,-4208,12495,2303,1534,-4581
68,-3762,11260,1534,765,-3649
-483,-3905,11515,-706,255,-3122
-283,-5316,13260,-1913,-1132,-2742
224,-4559,12272,-4065,-1681,-1817
255,-3778,13260,-4774,-2305,-1577
-1379,-3331,14846,-5483,-2373,-1146
-1499,-3985,15814,-5569,-2065,-805
24,-2742,16639,-5258,-1897,-765
-921,-1945,16093,-5193,-1546,-582
-877,-2774,16639,-5025,-1409,-602
-690,-2296,14798,-4833,-1058,-429
-487,-3730,15356,-4495,-1009,-343
-853,-2726,14559,-4330,-789,31
510,-1889,14838,-3793,-629,24
255,-1451,15563,-3489,-473,-275
255,-2339,15316,-3091,-457,-325
510,-1634,14822,-2417,-291,-355
510,-1116,15093,-2054,-275,-419
1789,-1483,15061,-1857,-373,-469
510,-1610,14316,-1658,-337,-517
510,-1945,15300,-1363,-341,-447
510,-1180,14838,-1281,37,-499
1275,-1714,14830,-1131,-269,-407
510,-419,14575,-973,-341,-471
52,-1714,14284,-1059,-497,-425
510,-2467,14025,-1161,-369,-387
510,64,14073,-1235,-558,-407
255,-2068,14830,-1242,-613,-447
255,-1451,14057,-1107,-681,-518
255,-1570,15069,-1017,-609,-503
510,-1921,14830,-762,-662,-483
510,-1005,14798,-702,-557,-529
510,-2084,15077,-590,-593,-509
255,-1841,15348,-273,-463,-497
255,-1228,14583,113,-381,-546
-602,-2052,15045,255,17,-493
-459,-885,15069,510,126,-387
765,-1754,14583,510,68,-514
510,-901,14838,511,140,-518
-343,-1634,15077,510,191,-493
255,-1578,15348,510,110,-505
-379,-1491,14535,511,234,-419
255,-1475,15085,255,145,-483
510,-913,14790,255,187,-459
224,-1084,14551,255,191,-317
-275,-1451,14822,255,167,-359
255,-1379,14790,255,188,-343
765,-1036,15061,246,200,-279
765,-1562,14328,126,187,100
255,-3443,14567,-285,96,255
255,-1730,14057,-622,-359,511
255,-694,15101,-769,-313,510
255,-435,15340,-793,-299,255
255,-1546,15332,-861,-353,255
255,-1172,15053,-853,14,255
-487,-1411,14535,-726,72,255
510,-793,14316,-645,-257,229
255,-1028,15045,-642,161,127
510,-275,14300,-726,92,42
1020,-1507,15085,-670,53,48
196,-1068,14535,-805,143,21
-259,-642,14551,-853,37,20
765,-1009,14535,-857,84,-267
255,-1268,14543,-881,-259,-265
255,-1650,14846,-889,129,-285
236,-1212,14806,-977,49,-337
510,-821,15053,-877,3,-293
255,-965,14790,-949,19,-275
255,-2116,15077,-925,85,-271
-315,-1140,14806,-945,122,-361
100,-997,14798,-1043,92,-405
120,-1188,15093,-977,30,-303
60,-1212,15077,-909,94,-371
765,-1068,14806,-937,75,-321
-1140,-1148,15061,-985,108,-319
510,-1339,15316,-1021,150,-419
765,-1347,14846,-1041,213,-355
510,-1276,15077,-1058,255,-373
255,-762,15045,-1076,214,-343
765,-1116,14543,-1082,251,-357
-295,-2009,15085,-1025,255,-538
-710,255,15069,-813,255,-750
510,510,15324,-503,510,-1187
-499,-993,15077,-269,511,-1283
765,-638,15045,151,510,-1441
510,-1116,14559,221,765,-1633
1020,-471,15575,155,765,-1666
510,100,15069,146,1020,-1825
1020,-965,15810,117,1275,-1881
510,-877,15595,255,1535,-2009
765,-658,16372,511,2303,-2116
765,-909,17085,765,2550,-2274
510,-1220,16575,1020,3069,-2263
510,-1355,16639,1022,3837,-2327
510,-1722,17085,1020,4335,-2209
-283,-1634,17149,1022,5117,-2071
255,-1778,16332,1021,5615,-1873
765,-1499,17340,1023,6121,-1689
240,-2084,17085,767,7165,-1395
255,-2184,17914,1020,7915,-1283
-630,-901,17404,1020,8927,-1211
255,-1435,18424,765,9471,-1209
510,-499,17659,1021,10718,-1235
-499,-873,18173,767,11475,-1315
255,-1411,17663,765,11997,-1345
765,-706,18169,765,13551,-1353
510,-1355,17850,765,14061,-1329
-566,-1993,17595,765,15302,-1289
-678,-1674,17404,765,15563,-1106
765,-777,17404,765,16895,-985
255,-1674,17599,765,17342,-1025
255,-1578,16575,765,17914,-1036
765,-670,17599,767,18879,-1076
255,164,16894,511,19391,-1369
510,-522,18169,767,20414,-1523
116,-1379,17659,765,21183,-1697
-375,-511,17599,765,22265,-1778
510,-1156,18105,1021,22719,-1801
-367,-463,16894,1023,23271,-2100
-1100,-997,16575,1275,24227,-2242
-1523,-315,16101,1275,24501,-2453
-1108,-773,15818,1275,25343,-2421
-1562,-833,16093,1275,25534,-2373
-1307,-893,14798,1275,26015,-2180
-1825,-885,15300,1275,26361,-2228
-2164,-750,15356,1275,26775,-2148
-3156,-427,15085,1279,26775,-2145
-3411,-1411,15324,1275,27541,-2097
-3459,510,15555,1279,27827,-2087
-3252,-1315,16372,1534,28593,-2225
-2758,-921,15045,1789,29086,-2248
-3395,-522,14591,1789,29437,-2214
-2706,-1228,15615,1787,29899,-2178
-3172,-590,15077,1791,30351,-1929
-3411,-1395,14029,1535,30445,-1786
-2837,-1323,14280,1020,30651,-1355
-3379,-1738,13790,511,30668,-1154
-3523,-2343,12782,194,30667,-825
-3985,-1188,12252,-389,30143,-841
-3826,-678,12025,-893,30094,-745
-4236,-1076,11770,-1161,29405,-758
-4367,-403,11742,-1673,29071,-777
-5005,-825,10463,-1953,28082,-690
-4901,-1403,10487,-2435,27647,-530
-4710,-1443,10463,-2737,26617,-449
-5834,-1642,9726,-3090,26015,-550
-5985,-722,9694,-3172,24831,-597
-6882,-427,9977,-3252,24291,-614
-6467,-562,9435,-3234,23038,-750
-7874,-957,9439,-3045,21691,-742
-7427,-443,9180,-2993,20926,-701
-7137,-1092,8925,-2865,20215,-610
-8097,-857,8670,-2933,18870,-501
-8224,-1068,7921,-2917,18169,-479
-8451,-598,8188,-3009,16575,-475
-8328,-1499,8415,-2949,15818,-477
-8129,-1443,8168,-2945,14328,-597
-9177,-415,8447,-2662,13294,-673
-7523,255,7658,-2515,11507,-682
-8734,-905,7654,-2278,10710,-689
-7906,-1650,7917,-2227,8925,-581
-9284,-2033,7670,-2487,8161,-389
-9181,-1658,7913,-2503,6654,117
-9037,-2033,7921,-2375,5865,255
-9563,-1801,7670,-2232,4335,767
-9547,-1212,8447,-2132,3827,1021
-8722,-1554,8670,-2071,3069,1279
-9348,-1602,8670,-2114,2047,1534
-8451,-1084,8670,-2230,1531,1787
-8977,-1969,8415,-2405,511,2295
-9611,-2216,9180,-2609,149,2550
-8714,-2017,9981,-2658,-861,2813
-9483,-985,10455,-2722,-1259,3063
-9611,-877,11220,-2737,-1483,3061
-9491,-969,11734,-2738,-1529,3583
-9818,-1331,12495,-2597,-1249,3825
-8655,-1953,12495,-2389,-1013,4082
-8973,255,12244,-2276,-594,4351
-8651,-1188,12543,-1945,-311,4090
-8288,-857,13531,-1937,255,3835
-5124,-1817,14846,-1905,255,3315
-4778,-2307,16356,-1945,255,2550
-9420,-503,15332,-1395,511,1534
-9097,1020,14332,-889,1791,1275
-8838,2044,14300,-550,2558,511
-8539,1020,15583,229,4094,255
-8479,510,15842,255,4847,-471
-8224,-491,14798,511,5631,-630
-9428,-375,14535,767,6887,-773
-9475,204,13308,1023,7407,-925
-9802,-690,12798,1279,7921,-933
-8798,-590,11483,1023,8164,-1172
-10073,172,10997,765,8168,-1139
-8794,-965,9945,511,8186,-1185
-9675,56,10232,255,7927,-1249
-9428,-909,10232,-365,7662,-1297
-9161,-722,10200,-642,7166,-1252
-9236,-1467,10232,-917,6893,-1148
-9364,-530,9945,-1052,6375,-1193
-8591,-355,9467,-1098,5371,-1185
-8790,-514,9471,-1081,5100,-1163
-8352,-762,9471,-993,5100,-1163
-8583,240,10204,-985,4335,-1228
-8846,-682,9977,-905,4093,-1345
-8459,-722,9690,-722,3063,-1465
-8858,-558,9467,-598,2807,-1499
-8862,-869,9180,-347,1789,-1577
-8647,-335,9467,32,1275,-1459
-9539,-1092,9471,174,767,-1379
-9746,-1188,8957,157,-443,-1289
-9691,-897,9435,122,-877,-1371
-9244,-801,9467,193,-1713,-1329
-9754,-1483,9981,255,-2083,-1371
-9308,-1044,10200,510,-2435,-1377
-9667,-1116,9467,510,-3105,-1337
-9348,-746,9439,511,-3425,-1313
-9499,-1100,10232,765,-4618,-1252
-9045,-1116,9981,767,-4869,-1252
-9045,-1116,9981,767,-4869,-1196
-8834,-602,10232,510,-5130,-1203
-8790,-853,10204,767,-5515,-1164
-9105,-762,10463,765,-5697,-1081
-9619,-1204,10495,765,-6211,-1098
-9029,-1140,10463,510,-6405,-849
-8667,-961,9945,511,-7073,-765
-8527,-773,9471,255,-7457,-578
-8902,-1961,9726,117,-8161,-397
-8591,-1108,9949,-361,-8597,45
-9228,-2120,9212,-682,-9101,216
-8926,-1299,9945,-833,-9993,255
-8001,-1451,9945,-1092,-10519,255
-8926,-2280,10236,-1249,-11411,255
-7969,-1291,9690,-1481,-11906,255
-8208,-1172,9439,-1617,-12809,255
-8408,-311,9726,-1905,-13378,255
-8834,-1044,9981,-2098,-14217,255
-8416,116,10204,-2200,-14659,255
-8515,168,10455,-2294,-15361,199
-7587,-419,10236,-2307,-15811,41
-7842,255,10455,-2229,-16417,-325
-7045,-686,9180,-2196,-16799,-507
-8001,-766,9726,-2180,-17595,-669
-8097,80,10232,-2115,-18049,-809
-7396,44,9694,-2163,-19105,-821
-9029,-618,9726,-2165,-19604,-690
-9228,-562,9212,-2277,-20483,-642
-7300,-1124,9945,-2433,-20871,-534
-7009,8,10718,-2531,-21668,-522
-6599,192,11766,-2433,-21897,-538
-5985,-283,12244,-2325,-22305,-577
-6726,-937,13308,-2017,-22401,-801
-6945,-562,12284,-1857,-22441,-909
-5611,-1068,13021,-1673,-22441,-1009
-5706,510,14061,-1633,-22153,-1083
-5093,-1323,14077,-1427,-21931,-1123
-5001,-427,14300,-1218,-21668,-1154
-4877,-766,14280,-1005,-21285,-1313
-4232,-503,13535,-749,-21161,-1337
-5356,-1009,14814,-597,-21025,-1481
-5001,168,12766,-349,-21033,-1634
-3873,-562,13802,-313,-21125,-1633
-4292,-526,13547,76,-21289,-1666
-4487,-1762,13276,-367,-21514,-1674
-4834,-1722,12244,-381,-21803,-1586
-4495,-1299,12766,-574,-22153,-1561
-4136,-1881,12798,-614,-22817,-1457
-4583,-1459,12248,-817,-23425,-1355
-5188,-758,12240,-1129,-23841,-1194
-4081,-2451,11483,-1266,-24598,-1009
-4491,-1801,12021,-1649,-25485,-929
-3092,-1291,12252,-1865,-25737,-781
-2917,-1610,12527,-2231,-26393,-793
-2738,-1666,12543,-2419,-26643,-709
-2706,-1291,13005,-2403,-27025,-533
-1969,-2184,13021,-2391,-27157,-621
-1817,-1801,14296,-2403,-27285,-529
-2116,-1172,13770,-2291,-27409,-514
-666,-1180,14045,-2276,-27397,-499
-1969,-1435,13802,-2213,-27525,-325
-1483,-1666,13547,-2337,-27921,12
-1435,-1499,14029,-2327,-28033,203
-933,-1554,13802,-2389,-28289,255
-622,-1451,14591,-2337,-28305,511
-566,-1945,15340,-2309,-27921,510
510,-1116,15810,-2069,-27796,765
-702,-989,16332,-1945,-27269,510
-371,-698,16324,-1745,-26756,765
765,-534,17085,-1369,-25993,511
510,-1132,17149,-1220,-25489,511
765,-929,16639,-901,-24835,510
-331,-375,16340,-821,-24353,511
255,-1754,16364,-690,-24097,511
255,-1865,15846,-590,-23329,511
1275,-1881,16320,-459,-23045,765
765,-1546,16894,-311,-22145,765
3068,-1666,16575,15,-21801,1022
255,11252,32511,-5313,-3106,23
-5005,2805,32511,-5537,2805,-1713
-1379,-1841,20400,2044,2295,510
765,-2025,20671,3061,2044,510
765,-2025,20671,3061,2044,255
1534,-2343,20671,3068,1785,255
2805,-1260,12495,1275,510,-698
2303,-383,13806,767,255,-698
2303,-383,13806,767,255,-781
2295,224,13053,90,131,-709
1279,765,13053,-949,-305,-833
1789,-363,13790,-1387,-514,-785
765,-622,15826,-1154,-423,-630
-315,-1499,16093,120,127,-622
765,-1068,15571,255,149,-518
510,-1188,14535,511,171,-359
1279,-981,14328,234,55,-333
765,-626,13790,-325,-335,-337
1020,-1076,14296,-605,-419,-385
765,-686,14535,-885,-553,-319
765,-570,15061,-841,-511,-379
765,64,14822,-941,-501,-347
255,-973,15316,-829,-597,-333
510,-1690,14790,-909,-549,-415
255,-1578,14790,-1026,-565,-305
255,-267,14559,-1164,-693,-315
-538,-351,14591,-1305,-610,77
255,-905,14328,-1329,-590,21
255,-455,15300,-1586,-626,85
116,-646,14300,-1393,-574,4
-283,-674,15069,-1291,-525,109
52,-1021,14061,-1467,-585,-265
765,-949,14316,-1537,-503,34
-738,-718,15603,-1409,-407,1
92,-279,15870,-1387,-309,15
216,-1188,14567,-1481,-489,-317
510,-1028,14583,-1538,-507,-347
176,-1140,15069,-1713,-469,-287
765,-961,15061,-1673,-473,-313
-351,68,14822,-1594,-481,-395
255,-825,14535,-1545,-431,-421
255,-1546,14790,-1642,-463,-343
255,-1403,14332,-1881,-545,-437
765,-1531,14312,-1937,-573,-429
510,-762,14591,-2033,-614,-469
255,-821,14798,-2116,-637,-439
510,-1714,14559,-2257,-666,-537
-303,-1315,15061,-2323,-745,-447
255,-1538,15077,-2375,-674,-521
510,-1499,15101,-2439,-849,-445
255,-562,15356,-2529,-933,-550
510,-1252,15061,-2689,-1043,-513
1020,-2276,15093,-2742,-1409,-581
2040,-2371,16101,-2949,-1706,-1114
-1467,510,19125,-2897,-3186,-554
510,-443,18173,-2321,-3761,-365
255,-1108,18364,-2163,-5130,3
255,-1276,17918,-2017,-5603,164
-698,-1036,17404,-1682,-6631,184
1789,-279,17340,-1491,-7073,255
-742,-1531,17085,-1241,-7682,255
255,-909,17663,-1209,-8661,255
510,-945,17085,-1274,-9157,255
1020,-1554,16344,-1363,-10049,237
80,-1650,17085,-1459,-10513,63
510,-1570,16328,-1594,-11153,58
255,-1507,16089,-1610,-11393,-357
765,-1953,16097,-1633,-11842,-397
510,-1331,15332,-1570,-12113,-455
1534,-1801,16109,-1809,-12685,-534
2044,-1299,15555,-1913,-12873,-634
1534,-1172,16121,-2129,-13378,-677
510,-2001,16324,-2194,-13961,-857
255,-1315,17404,-2152,-14723,-1051
255,-2439,16830,-1889,-15173,-1090
1275,-1411,16368,-1785,-15811,-1130
1275,-1339,16575,-1499,-16831,-1226
1279,-945,16830,-1553,-17062,-1131
1530,-1586,16639,-1521,-18058,-1082
1530,-1586,16639,-1561,-18440,-1146
1785,-1244,17085,-1634,-19491,-1250
2040,-2072,16575,-1297,-20273,-1241
2044,-1786,16575,-1193,-20642,-1313
2044,-542,15842,-1065,-21030,-1313
2044,-773,15591,-685,-21253,-1178
2040,-766,15559,-590,-21761,-941
1789,-905,16065,-622,-22153,-865
2303,-762,16368,-545,-22785,-753
3068,-347,16575,-569,-23205,-574
1785,-678,16575,-433,-24321,-562
3068,-913,16894,-363,-24721,-549
2805,-1084,15810,-327,-25473,-558
4335,-945,15332,-481,-25875,-405
3837,-1993,15045,-586,-26114,-409
2813,-1475,14814,-769,-26249,-521
4335,-1100,14543,-746,-26505,-606
2813,-1483,14073,-905,-26521,-722
3068,-1817,13535,-1058,-26377,-730
3833,-1786,14284,-766,-25729,-841
4088,-1084,14296,-463,-25737,-929
4335,-1714,14300,225,-25501,-873
4845,-1244,15340,169,-25859,-1036
5116,-1905,14790,37,-26130,-1089
4845,-1897,14057,-319,-26505,-1243
5626,-1180,14830,-381,-26643,-1361
5626,-1379,14838,-407,-27029,-1331
5881,-1666,14312,-301,-27265,-1491
6120,-2017,13802,-323,-27397,-1698
6124,-1865,14025,-441,-27650,-1801
6375,-1538,13818,-821,-27668,-1953
6375,-554,12798,-1067,-27778,-2088
6383,-1084,13037,-1786,-27907,-2119
6383,-1331,14029,-1849,-28162,-2085
7666,-1028,13519,-1705,-28290,-2210
6140,-1013,13563,-1617,-28433,-2371
6638,-1060,13260,-1809,-28680,-2389
7419,-1849,12511,-1985,-28805,-2373
6909,-602,12782,-1905,-28939,-2307
7395,-1483,12750,-1754,-28929,-2258
7415,-1451,12511,-1578,-28804,-2405
6901,-538,11770,-1515,-28802,-2417
8180,-1570,11766,-1529,-28816,-2387
8670,-1347,11483,-1554,-28674,-2481
8702,-1268,11220,-1841,-28177,-2499
8702,-550,9945,-2041,-27921,-2629
9467,-2212,9949,-2533,-27270,-2693
9467,-1419,9949,-2949,-26885,-2881
8957,-1276,10710,-3057,-26258,-3041
9212,510,10236,-3234,-26121,-3057
9212,184,11993,-2817,-25365,-3537
8447,80,10750,-2229,-24979,-3300
8957,-1028,10965,-2052,-24715,-3124
9722,-530,9977,-1969,-24225,-2917
8415,255,10495,-2052,-23937,-2678
8415,-1937,10973,-2133,-23170,-2642
6136,-3746,10742,-2147,-22657,-1729
6136,-710,8670,-2179,-20781,-1617
7913,196,8188,-2339,-20018,-1339
8415,-1379,7933,-2421,-18225,-1371
10495,-483,7905,-2325,-17553,-1505
10455,-1283,7909,-2274,-16410,-1483
11475,-1889,7156,-2009,-15937,-1411
11989,-1036,7674,-2081,-15109,-1202
12766,-2646,7156,-2017,-14657,-969
13802,-1730,7164,-2341,-14532,-829
13515,-714,7423,-2503,-14273,-781
13535,-993,7658,-2630,-14281,-681
14029,-881,7419,-2805,-14145,-549
15591,-702,7658,-3075,-14081,-477
16117,-833,6124,-3218,-14340,63
15615,-2017,6399,-3618,-14597,-389
15591,-793,6901,-4049,-14978,-734
14846,-809,7156,-4681,-15046,-1009
16376,-1467,8164,-4973,-14530,-1028
14332,-941,8447,-5385,-13451,-1185
13005,-367,7929,-5419,-12866,-1162
11515,-789,8702,-5219,-12353,-1083
11005,-849,7929,-4969,-12241,-726
10495,-993,7909,-4738,-11729,-593
11507,-487,8168,-4457,-11539,-427
11742,-909,8447,-4258,-11077,-325
11005,72,8447,-3425,-10770,25
11252,-467,8957,-3073,-10373,4
11475,208,8925,-2614,-10325,86
12511,-857,9212,-1801,-10113,161
12527,-598,8176,-1545,-9873,198
14077,-913,8447,-1401,-9683,255
14045,-1778,7662,-1347,-9290,255
12272,-447,7140,-1377,-9105,153
13053,-714,8184,-1243,-8661,125
13308,-395,9180,-1219,-8402,108
13005,-977,7654,-1258,-7937,168
13260,-1228,7917,-1329,-7810,255
13551,-730,7407,-1658,-7649,255
13531,-1124,6646,-1849,-7361,255
14296,-2531,7164,-2467,-7298,511
13774,-1546,7156,-2710,-7235,511
14061,-1546,6646,-3138,-7141,511
13308,-1714,7148,-3234,-7045,510
13515,-1905,7662,-3491,-6945,767
13276,-1411,7674,-3586,-6754,765
13260,-1132,7662,-3713,-6726,765
13053,-1068,7423,-3729,-6089,767
13053,-1068,7423,-3729,-6089,767
12798,-2531,7913,-3697,-5897,767
13053,-1873,7650,-3569,-5641,765
13053,-2041,7933,-3473,-5571,765
13053,-2056,8184,-3347,-5473,767
13802,-2515,8188,-3377,-5377,767
14332,-2817,7933,-3393,-5419,510
14057,-1156,7407,-3618,-5260,511
14806,-1833,6901,-3601,-5227,511
13786,-2248,6893,-3666,-5101,510
13551,-1387,7662,-3649,-4810,510
13519,-1602,6399,-3601,-4577,765
13770,-2614,7156,-3602,-4165,511
12511,-1252,6885,-3475,-4017,511
12782,-2547,6885,-3393,-3649,510
13563,-2148,6901,-3122,-3443,255
13774,-2292,6646,-2949,-2997,255
13790,-2084,6646,-2705,-2709,255
13567,-1578,6120,-2661,-2182,242
13790,-2104,6140,-2449,-1945,227
13037,-1937,6399,-2403,-1347,175
13786,-1722,6399,-2215,-997,227
13535,-1849,6383,-2104,-395,255
13053,-2343,5630,-1945,157,255
13308,-2499,5869,-1873,255,255
14029,-2806,5100,-1817,767,511
13519,-1427,5355,-1689,1275,255
13535,-2248,4861,-1674,2043,511
13308,-1411,4861,-1642,2295,255
13308,-1969,4606,-1746,3070,255
14332,-1236,4606,-1698,3319,255
13292,-2375,4861,-1682,3837,255
13563,-2017,5116,-1777,4590,255
12782,-1985,4335,-1746,5100,255
12527,-1786,4606,-1785,5869,255
13053,-2467,4606,-1857,6139,255
13276,-1538,5626,-1873,6893,255
13021,-514,5359,-1857,7415,255
12543,-961,5371,-1841,7675,255
12543,-1873,5869,-1833,8415,255
12527,-1084,6375,-1665,8447,511
13053,-941,6399,-1529,8959,511
13308,-1228,7674,-1473,8927,511
12782,-1339,7415,-1196,9182,510
13021,-2515,7140,-1028,9439,511
12782,-2200,7164,-773,9723,510
12543,-1323,6630,-646,10234,255
13005,-1491,6901,-613,10455,511
13053,-1682,6885,-785,11255,510
16356,-1299,8925,-769,12511,255
17595,-1594,11730,255,14057,19
10965,-2487,8415,767,14287,-493
13806,-3507,8702,1275,14282,-259
13535,-1196,9981,1275,14299,104
13037,-2806,10463,1275,14059,206
12240,-2662,9471,1023,13563,255
12511,-1220,8702,765,13819,255
12782,-1977,8670,767,13818,255
12750,-2531,8670,765,14031,255
12284,-2483,8957,511,14041,243
11997,-2212,8670,765,14315,255
11985,-1985,8957,511,14332,232
12527,-1754,8415,255,14334,94
11989,-1706,9212,255,14807,32
11985,-2710,8415,205,14799,-517
12766,-2849,8670,184,15061,-413
12782,-2694,9722,145,15047,-333
12240,-3124,8925,255,15053,-401
12244,-2610,9726,255,15333,-443
12021,-1315,9722,510,15342,-445
11742,-2403,9471,511,15311,-447
12017,-2184,9471,765,15555,-297
11997,-2280,9945,1023,15611,-367
11762,-1865,10495,1020,15607,-339
12244,-2598,10232,1023,15611,-359
11730,-2610,10455,1275,15571,-449
12240,-2642,10236,1275,15559,-545
12252,-2292,9945,1275,15599,-769
11005,-2120,9212,1275,16109,-809
11487,-2228,9435,1020,16575,-1193
11487,-2228,9435,1020,16575,-1180
10973,-2136,9945,1022,16830,-1220
10750,-2706,9435,1279,17149,-1201
10495,-2100,9981,1275,17340,-1323
10965,-2180,11228,1531,17340,-1266
10997,-1969,10750,1531,17343,-1339
9722,-1403,10742,1791,17406,-1321
10750,-1889,10997,1787,17406,-1147
10463,-1993,11519,1791,17342,-1257
10232,-1156,11487,2047,17404,-1132
10455,-2391,10718,2043,17659,-1137
9945,-793,9977,1791,17599,-1074
10463,-1299,10200,1534,17914,-1115
10965,-1714,10973,1275,18169,-1089
9977,-1618,9471,1021,18429,-993
9726,-1268,10455,255,19447,-857
9726,-1268,10455,255,19447,-837
8702,-1459,10455,255,19447,-837
9439,-1483,10487,105,19894,-777
8957,-1618,10232,-439,20401,-777
9435,-1570,9949,-511,20910,-805
8925,-1443,9981,-650,21181,-725
8957,-1937,10487,-1005,21739,-685
8415,-558,10455,-1082,21935,-637
9180,-1172,9726,-1409,22775,-673
7403,-1491,9949,-1531,23031,-633
7148,-1204,11220,-1881,23534,-618
6885,-1371,10750,-1961,23791,-421
7909,-913,11511,-2231,24545,-405
7403,-283,10750,-2296,25055,-363
7395,-1124,11228,-2593,25787,38
6638,-682,11730,-2645,25851,100
6893,-658,11252,-2725,26265,186
6893,-961,11730,-2901,26871,255
6630,-1331,11005,-3013,27071,192
6140,-1315,11762,-3155,27317,104
6140,-1754,12511,-3329,27644,223
6136,-1140,12240,-3331,27827,255
5100,-1180,12750,-3409,27831,255
5100,-1021,12527,-3443,28146,255
5116,-2056,13260,-3505,28151,255
5116,-1268,13308,-3491,28345,255
4606,-1937,13770,-3553,28343,255
5116,-2072,13770,-3521,28401,255
5371,-2009,14535,-3555,28319,510
4590,-1809,13551,-3505,28373,511
3574,-2052,14806,-3473,28118,511
4080,-1387,14041,-3507,27831,511
3315,-1961,15300,-3475,27604,511
3582,-1913,14790,-3475,27359,765
3578,-1674,14814,-3473,27062,767
3060,-1793,15356,-3489,26839,765
3060,-1228,14575,-3521,26329,765
2805,-2359,14830,-3618,26303,767
3315,-1618,15324,-3571,26046,511
2295,-2292,15093,-3553,25819,765
2813,-2116,15300,-3505,25759,511
2040,-1722,15300,-3315,25565,510
2303,-2212,15822,-3236,25279,510
1785,-3061,15093,-3057,25054,255
2295,-1881,15316,-2853,25054,511
2040,-2200,14814,-2757,24990,228
1789,-2726,15093,-2645,24735,125
1789,-2917,14312,-2465,24831,-381
1789,-1945,14790,-2437,24551,-441
1534,-3124,15077,-2529,24553,-626
765,-2547,15308,-2309,23743,-813
765,-2547,15308,-2309,23743,-769
765,-2327,15308,-2247,23543,-769
765,-3300,16069,-2132,23471,-933
510,-2833,16097,-1833,23031,-881
255,-2407,15854,-1770,22775,-937
152,-1841,16348,-1449,22511,-1027
-375,-1929,16360,-1419,21743,-1021
-574,-2296,16639,-1642,20974,-993
-479,-2503,16575,-1737,20655,-965
196,-1602,16830,-1833,19635,-913
236,255,32511,-1809,10967,1275
5865,-2403,32511,2047,-2149,2041
3068,-4519,7148,4351,-5705,2042
2303,-2722,3570,4095,-3857,2303
92,-5706,10965,3323,-1203,2044
-2658,-4081,14284,1279,-989,2046
-2881,-2371,15356,510,-949,2303
-2582,-2531,13037,510,-997,1531
-3061,-4272,11770,1020,16,1275
-3985,-4017,13531,1022,144,765
236,-3363,15093,1279,151,511
212,-2439,16356,1530,109,255
255,-2551,15559,2045,255,255
-578,-2244,15834,2805,255,255
-829,-2116,15332,3315,767,255
-1140,-1658,14822,3583,1020,175
-287,-3108,14575,3829,1021,33
510,-2626,14798,4080,1023,-377
216,-2391,15308,4091,1020,-509
1275,-1283,14328,4083,1020,-509
-311,-1108,14057,4087,1023,-546
20,-1379,15053,3837,1021,-661
252,-1323,14316,3315,767,-593
765,-1276,14806,2813,1022,-526
765,-1913,15053,1787,1022,-491
120,-1786,13563,1531,765,-479
1020,-1291,14535,1275,765,-463
1020,-1419,14041,1279,767,-325
1020,-1650,14041,1279,765,4
1020,-2738,14790,1275,511,26
255,-2017,14551,1023,510,25
1785,-1945,14559,1021,510,29
1279,-618,15340,765,511,37
1020,-2487,14300,767,511,97
1279,-1642,14567,767,255,70
765,-550,14300,1023,510,172
255,-1363,14830,1022,511,96
510,-1371,15077,1023,510,41
510,-901,14798,1279,255,90
510,-1379,15061,1022,255,50
765,-1459,14551,1022,255,25
255,-742,14830,1023,255,42
212,-1841,14551,1020,255,49
-1132,-1044,14535,1022,255,-293
765,-1148,14830,765,255,-263
255,-343,14790,765,255,-275
510,-933,14551,510,255,36
1020,-1419,14296,255,227,-267
255,-694,14822,255,217,43
-275,-1570,15101,255,187,41
255,-873,14838,255,190,11
510,-1515,14077,156,118,98
255,-1825,14846,-361,71,-281
212,72,14316,-522,-259,44
765,-1491,14316,-721,-263,44
1275,-491,14332,-861,-337,93
765,-933,15324,-1091,-341,54
255,-443,14535,-1289,-417,110
-722,-1108,14790,-1339,-429,32
255,-1172,14328,-1738,-509,139
1020,-439,14041,-1897,-489,-257
176,-993,14332,-1889,-617,174
-666,-1371,14806,-2136,-629,202
164,-1299,14559,-2276,-670,198
765,-1531,14559,-2389,-634,254
510,-1722,14806,-2710,-766,255
-630,-969,14535,-2865,-694,255
88,-1578,14798,-3025,-590,209
255,-1674,14559,-3172,-714,255
255,-1921,14551,-3266,-669,255
510,-1515,14846,-3186,-705,255
765,-1299,14300,-3361,-765,255
510,-1865,14591,-3316,-693,255
228,-1379,14073,-3393,-709,255
510,-1148,14806,-3507,-725,255
510,-1969,15053,-3457,-690,249
-558,-1650,14543,-3475,-702,223
510,-2068,14567,-3409,-693,175
196,-1690,14073,-3507,-637,225
510,-1132,15085,-3553,-653,197
-419,-1889,14284,-3665,-634,197
104,-2148,14830,-3746,-685,147
255,-1714,15085,-3841,-682,255
510,-1140,15085,-3953,-741,215
-283,-1833,14284,-4033,-762,179
510,-1706,13806,-4391,-753,239
255,-1690,14814,-4485,-730,162
68,-1730,14814,-5037,-714,141
220,-1602,14551,-5219,-805,27
510,-1044,15069,-5451,-797,12
255,-1602,15061,-5705,-873,-277
510,-1849,14551,-5833,-941,-279
765,-2471,14535,-5889,-885,-333
-395,-1283,15332,-6057,-817,-321
8,-1228,14838,-6049,-837,-371
765,-2551,14806,-6340,-905,-283
236,-1770,14041,-6437,-829,-317
1020,-1961,14830,-6693,-809,30
1020,-1276,14822,-6758,-893,24
255,-1857,14559,-6949,-881,-281
255,-3220,14583,-7141,-969,-309
510,-2913,14077,-7171,-965,-417
1275,-1570,15061,-7396,-1091,-361
510,-1666,14575,-7521,-1146,-453
765,-2009,14300,-7714,-1076,-347
765,-2499,14846,-7841,-1155,-287
1020,-1395,14822,-6180,-1218,-335
1534,-3061,12766,-1162,-877,255
1020,-2228,10742,-2099,255,-275
-371,-2355,15340,-2053,102,24
1020,-1889,15332,-2405,255,40
510,-2327,14583,-2113,96,62
-550,-2120,14790,-2086,-321,123
-495,-1857,14284,-2001,-325,231
208,-2626,14280,-2209,73,210
1020,-3013,14543,-2260,235,54
1020,-3363,14838,-2212,205,-365
1534,-2817,15053,-2245,131,-451
255,-3124,15348,-2401,53,-361
510,-2052,15077,-2578,5,-521
1530,2044,15308,-2610,210,-997
510,1530,14822,-2710,255,-2066
255,-2120,15567,-3105,255,-2290
1020,-2228,14790,-3217,206,-2230
1020,-2168,14045,-3347,255,-2113
-339,-2837,14575,-3379,252,-2056
510,-2515,14591,-3505,239,-1849
765,-3172,15822,-3697,108,-1730
-271,-2068,15085,-3810,-265,-1345
-271,-2582,16109,-4367,-621,-1178
510,-2311,15607,-4527,-701,-785
510,-3124,15053,-5033,-857,-742
510,-3379,16101,-5225,-937,-689
0,-2359,16639,-5284,-1283,-849
232,-2499,17149,-5507,-2083,-889
765,-2072,17404,-6248,-2501,-885
1279,-2196,18169,-6593,-2997,-845
1530,-2503,18360,-7235,-3299,-1099
1530,-3076,18109,-7809,-3905,-1124
2295,-2375,18679,-8797,-4321,-1244
1789,-1546,18934,-9305,-5129,-1569
1275,-1475,18942,-10436,-5953,-1738
1275,-1905,19197,-11281,-6244,-2054
1789,-2722,20464,-12749,-7109,-2280
3060,-1475,20145,-14408,-7651,-2677
3068,-2451,20221,-15169,-8726,-2993
2558,-2407,20671,-16665,-9857,-3041
1789,-2009,20476,-17922,-10439,-3361
1020,-4579,19962,-18485,-11665,-3523
1785,-3826,18687,-19125,-12367,-3569
1275,-4618,19380,-19475,-13261,-3297
1530,-5220,21484,-16902,-13057,-3203
510,-5547,20671,-13193,-13061,-3108
252,-5228,19958,-11842,-12679,-2881
-411,-5539,18687,-10581,-13133,-2837
-981,-5475,17085,-10515,-13249,-2757
-933,-5443,16575,-10433,-13069,-2853
-1801,-5698,15814,-10261,-12873,-2897
-1515,-5348,15101,-9675,-12420,-2913
-1276,-6563,14284,-9361,-11667,-2757
-447,-6627,14025,-9037,-10965,-2277
-1188,-7009,13053,-9497,-10758,-1985
184,-7172,12284,-9809,-10137,-1385
-702,-6627,12248,-10645,-9754,-1058
-487,-6180,11260,-11137,-8897,-569
-881,-7109,12025,-11778,-7905,-403
255,-6662,11507,-12241,-7396,106
510,-6722,10750,-12675,-6467,249
1020,-6886,9945,-12994,-5993,511
1020,-6535,10463,-13579,-5005,765
1279,-6376,9981,-13834,-4609,1023
1279,-6503,10204,-14534,-3315,1279
1789,-6184,11005,-14727,-2658,1275
1530,-5834,12244,-15109,-1196,1530
2550,-6435,12248,-15297,-461,2044
2303,-6344,12248,-15169,1023,2043
1789,-7141,12798,-15169,1534,2550
2550,-7459,12495,-15362,2303,2550
3327,-5993,12527,-15873,2558,2807
5375,-5611,14057,-16257,3574,2815
5116,-5706,14029,-17153,4085,2815
4861,-7204,15563,-17466,5100,3062
5355,-7041,15348,-17825,5371,3071
5885,-5674,14575,-17922,5611,3323
5355,-6340,14300,-18074,5355,3315
5100,-5292,14316,-18217,5359,3323
5116,-6276,14591,-18486,5117,3327
5865,-6567,14029,-18741,5119,3319
5869,-7300,13308,-19089,4590,3071
6124,-7523,12511,-18978,4335,3063
5116,-7937,13260,-19217,4089,3063
5116,-8324,12240,-19475,3578,3315
5100,-8129,11738,-19873,2807,3327
4845,-7810,10487,-20241,2303,3060
4861,-6407,9977,-20353,2042,2815
4590,-7137,9690,-20273,1791,2813
3578,-7364,10236,-19731,2047,2550
3060,-7651,10455,-19492,2042,2295
1530,-8607,10742,-19109,1787,2295
1275,-8284,10200,-18949,1791,2295
1275,-8647,9212,-18823,1531,2295
1020,-8607,8670,-18695,1791,2558
1020,-8459,8447,-18705,2551,2807
1279,-9025,7909,-18695,3574,2813
510,-8097,8447,-18869,5117,2815
255,-8097,9439,-18993,6120,2558
-630,-8001,9981,-18821,6909,2551
-849,-7651,10455,-18739,7650,2303
-471,-8065,10965,-17705,7931,1789
-471,-8065,10965,-17705,7931,2045
255,-8794,10965,-17443,7931,2045
1020,-10248,11228,-17153,8447,2805
2813,-9730,11487,-17065,8957,3068
2558,-8922,10463,-16910,9180,3323
2550,-7427,10973,-16408,9726,3327
1534,-8834,11770,-16193,9690,3063
1275,-8730,12017,-16002,9727,3327
2550,-8850,11487,-15938,9435,3323
3582,-8161,11260,-16065,9471,3319
2805,-10057,11220,-16066,9215,3583
2040,-8663,11220,-16321,8447,3319
2805,-8220,11766,-16523,8171,3061
2558,-9754,11734,-16556,7157,3061
3315,-9412,11475,-16257,6887,3060
4351,-9619,9690,-16065,5881,3069
3327,-9985,9690,-15811,5631,2815
3833,-8989,9212,-15554,4845,2550
2805,-8519,9435,-15169,4351,2303
4092,-9292,9977,-14978,3827,2044
3570,-9499,9212,-14465,3582,1789
2295,-11412,9439,-14341,2558,2040
3323,-10758,7411,-14217,2046,2295
2040,-10818,6646,-14209,1020,2303
2040,-11157,6383,-14406,765,2047
1020,-10388,6383,-14529,511,2042
1020,-9181,6909,-14529,511,1787
1275,-8659,7140,-14338,1279,1279
765,-9611,8172,-14081,1787,767
180,-9420,8447,-13569,2303,510
-610,-9153,9981,-13261,3071,255
-1108,-9563,9945,-12420,3323,255
-1204,-9667,11993,-11985,3827,232
-1993,-8467,11766,-10966,4087,175
-1276,-8519,13005,-10433,4606,105
-2260,-8667,12750,-8905,4591,-425
-1905,-8722,12543,-8161,4847,-809
-1786,-7810,12029,-6277,5100,-1082
-1658,-8607,13260,-5290,5615,-1586
-1714,-8527,13276,-3377,5881,-1745
-2001,-7874,13292,-2693,6125,-2262
-1634,-8603,13308,-1497,6911,-2227
168,-10328,13786,-1034,6909,-1833
510,-12432,12280,-553,7679,-1537
-435,-11858,12025,-351,7923,-1089
-1403,-12113,11475,192,7395,-829
-2017,-12942,11766,255,7148,-403
-2961,-12496,11730,255,6139,59
-730,-12113,9212,510,5611,255
-969,-13699,7148,95,5101,511
-1299,-14026,6638,-499,4335,765
-610,-15683,5626,-897,4091,1275
255,-15811,4084,-2103,3327,1531
-1594,-15428,3060,-2626,2815,2043
-722,-15811,3578,-3601,2559,2042
255,-16002,3829,-4163,2043,2046
765,-15619,3578,-5025,2045,1789
510,-15428,4080,-5353,2043,1534
510,-15874,4606,-5985,2040,1275
510,-14791,5355,-6180,2295,1279
-610,-14854,6909,-6433,2295,767
255,-13125,6646,-6471,2042,511
228,-13452,9435,-6374,1789,255
255,-13061,9212,-5826,1531,129
255,-12679,10487,-5539,1279,-295
-901,-13069,11519,-4777,1020,-475
-307,-12547,12276,-4195,510,-577
100,-12097,12029,-3201,511,-809
255,-11970,12025,-2678,510,-909
-287,-12113,12527,-2246,510,-1065
-459,-11731,12798,-1243,511,-1196
-933,-10902,12025,-905,511,-1337
200,-10882,12284,70,767,-1393
-1523,-11013,12276,255,767,-1515
-1299,-11029,12248,1021,1022,-1753
-1515,-10515,12798,1534,1021,-1499
-1897,-12488,12248,2303,765,-1369
-2068,-11842,12244,2807,765,-1114
-2630,-13324,11519,3575,511,-865
-2391,-13579,9722,3825,511,-541
-2626,-13890,9180,3827,255,2
-2311,-13962,6893,3829,255,241
-2690,-14472,6391,3579,117,510
-2977,-14081,5865,3071,-387,767
-2311,-14918,5630,2807,-463,1023
-2901,-14791,4590,2041,-497,1275
-1499,-14787,4335,1785,-533,1275
-1483,-14472,4088,1275,-471,1534
-2339,-14081,5116,1022,-349,1531
-2276,-13898,4861,511,64,1534
-993,-14026,5375,255,255,1530
-893,-13699,5869,255,255,1534
-1028,-13571,5869,29,510,1531
-1236,-12615,8415,19,767,1531
-925,-11842,9467,255,765,1279
255,-11906,10455,255,511,1279
255,-11906,10455,255,511,1023
-419,-11412,11005,510,511,1020
76,-11539,10487,1021,255,1021
255,-10822,11515,1530,161,765
-299,-11332,11507,2295,54,511
255,-11587,11734,2559,-331,510
255,-10898,11766,2807,-363,159
1279,-10312,11997,3835,-507,-263
510,-10503,12248,4090,-629,-471
1020,-10452,11770,5116,-618,-985
1020,-10244,12766,5611,-690,-1140
1020,-10886,12021,6903,-726,-1593
1530,-10631,12284,7407,-917,-1713
84,-10631,12782,8671,-985,-2098
152,-10962,12543,9439,-1153,-2293
-383,-10456,12527,10997,-1241,-2673
-331,-10121,11742,11734,-1266,-2802
765,-11794,10718,12527,-1337,-2805
765,-12743,10495,13277,-1251,-2545
765,-12177,10495,13277,-1339,-2193
765,-12049,8415,13535,-1594,-1497
-698,-12296,8415,12783,-2130,-1035
-825,-13249,6654,12798,-2294,-463
-1291,-12739,6654,12287,-2694,-265
-1252,-12942,5626,11519,-2722,238
-1610,-12994,5100,11228,-2709,255
-1355,-13002,4606,10742,-2721,255
-1355,-12097,5614,10239,-2519,215
-1028,-11842,5371,9439,-2469,255
-1331,-12161,6654,9213,-2056,83
-566,-11077,6375,9214,-1841,-377
-1132,-11268,7658,9435,-1507,-597
-407,-10201,7156,10495,-817,-1586
-495,-9627,8160,11007,-570,-1586
-295,-9627,8160,11507,-570,-1825
176,-9938,8415,11762,139,-2132
510,-9348,8447,12252,202,-2853
-419,-8161,8702,13276,161,-3252
-1276,-7459,9180,14029,-283,-3985
-303,-7041,12029,16895,-861,-4773
-303,-7041,12029,16895,-861,-5065
510,-7073,12029,17854,-861,-5065
1789,-7137,13037,18870,-637,-5547
2303,-8858,13260,20975,-389,-5705
2805,-8838,13535,21695,255,-5260
2550,-8643,14061,22783,255,-4802
2558,-10324,14077,23023,195,-3361
2550,-11348,13551,22767,-387,-2449
1530,-11348,12252,22525,-1401,-622
765,-10567,10487,21247,-2897,255
510,-9746,7678,20412,-3602,1279
255,-10886,6885,18363,-4838,1535
510,-9993,5610,17599,-5292,2045
255,-9539,5630,15587,-5545,2041
255,-9858,5375,14583,-6081,2040
765,-11603,5626,12527,-6113,2044
1789,-11284,4861,11762,-5833,1787
1534,-10695,5116,9977,-5802,1275
765,-9483,5610,9471,-5033,1279
1789,-9738,5100,8927,-4621,1022
1789,-8918,6399,8447,-3730,767
2295,-8400,9439,8415,-3299,255
1279,-7555,9439,8703,-2933,162
765,-6407,11515,8959,-2327,-395
1275,-5770,12798,9435,-2086,-877
1530,-5642,13790,10975,-1809,-1036
765,-4718,15101,12543,-1746,-1387
1020,-4081,16105,13263,-1690,-1507
1530,-5097,16894,14559,-1682,-1714
765,-3252,17340,15309,-1609,-1945
510,-3092,17404,16639,-1489,-2041
104,-3268,18109,17595,-1529,-2275
255,-4328,18428,18879,-1515,-2291
510,-4782,18364,19647,-1609,-2104
510,-5061,18360,20735,-1642,-1993
765,-5897,16830,21229,-1841,-1515
-1228,-7523,16894,21931,-1945,-1115
-1570,-8276,16093,21759,-2439,255
-1499,-10436,15053,21181,-3156,1020
1020,-9858,11487,20157,-3475,2813
1020,-11970,8415,19125,-3569,3825
765,-11651,7933,17087,-3314,5630
-1435,-8858,4088,13278,-3124,6909
-2068,-7969,4861,12027,-3236,6909
-2068,-7969,4861,12027,-3236,6911
-2949,-8097,5116,9467,-3234,6895
-2917,-7842,6391,8186,-3266,6895
-1905,-7045,6885,6391,-3073,6887
-602,-6184,7164,5627,-2519,6638
1020,-5738,8415,5116,-2113,6142
1534,-5794,9435,4591,-1331,5615
1534,-4846,11770,4351,-941,5119
1534,-5124,12272,4863,-473,4606
1789,-3188,14583,5355,255,3583
1275,-2726,15854,6383,255,3315
1789,-2981,16360,7156,255,2805
1789,-2001,18428,7925,255,2044
2044,-1196,19647,9726,255,1534
2805,-702,20472,10455,159,1021
2040,255,20671,12511,23,255
1789,510,22010,13515,-301,-541
1279,1534,23205,14815,-573,-1658
1275,1789,23540,17151,-737,-2230
1789,220,24484,18361,-1013,-2547
2558,-694,25086,20671,-1082,-2551
1530,-2562,23213,21930,-1260,-2151
-754,-3841,22767,23487,-1546,-1321
-2136,-4710,19703,24295,-2131,-309
-3810,-4869,17850,24735,-2307,255
-3300,-5611,15555,24799,-2309,765
-2503,-6567,14296,24249,-1762,1022
40,-7300,11220,23739,-1241,1531
-638,-8643,10965,22191,-297,1787
255,-9236,8415,21167,255,2815
1020,-8212,7650,19127,765,3323
1275,-6981,6399,17851,2295,3574
1020,-6754,6383,16575,2807,3825
-1013,-5029,6901,14061,3839,3831
-1793,-4583,8702,12782,4335,3827
-1459,-3363,9180,10718,4845,3571
-1148,-1977,12495,9979,4845,3319
-750,-1283,13276,8671,5101,3319
-1331,-606,14567,8415,5371,3062
510,1530,17340,7675,5630,2045
-2467,255,19635,7675,4861,1531
-2467,255,19635,7675,4861,1275
-889,1020,19635,7915,4861,1275
-889,510,19711,8186,4087,510
-459,-367,19707,8702,3583,255
-1443,-742,19635,9695,2813,255
-479,-1228,19189,10455,2558,53
220,-993,19388,11221,2303,104
212,-1507,18623,11519,2047,-307
-702,-1196,16894,11743,1791,-433
-550,-2531,15818,11731,1535,-345
-526,-3268,14332,11511,1535,118
68,-4164,13822,10750,1535,255
-873,-3395,12798,10234,1020,255
-347,-5284,11985,8702,765,1023
-1180,-3682,11762,7909,510,1531
-1746,-3124,10973,7164,255,2044
-1491,-2327,10742,5371,255,2295
-1921,-2423,11770,4590,255,2558
-925,7407,20655,3578,-3665,4083
3582,2040,32511,4590,-16934,6142
9690,-3108,25787,6383,-16811,5355
5359,510,12766,6895,-12749,3839
-909,1785,15611,7679,-11217,3062
-542,3319,29102,6399,-6213,3061
-4929,7140,32511,3319,-1609,249
-5124,6399,30361,3069,1020,-1243
0,-1331,13021,3829,1531,255
1785,-4164,11479,6140,1785,143
240,-1754,16639,6654,2295,-387
16,-2710,17085,6399,2043,765
-1005,-9045,14567,4335,1535,1534
-1164,-5834,11252,3583,1021,1789
-1021,-2264,12252,2805,1023,2044
-925,3060,14280,2815,1023,2045
-813,3327,15575,2807,1279,2045
144,765,16109,3060,1785,1791
-311,255,16830,3319,2042,1275
1534,765,16639,3829,2047,1023
2044,1275,15583,3839,2045,767
2044,172,15101,3570,2041,510
2558,1020,14543,2807,2043,255
2044,255,14316,2295,2295,141
2044,1534,14300,2303,2046,-689
1275,1534,15324,2047,2042,-877
2040,1020,14328,2303,2550,-1148
1279,765,15093,2047,2558,-1786
765,152,15053,2040,2551,-1953
255,255,14316,2042,2550,-2041
510,255,14575,2042,2551,-2017
1020,176,13547,1791,2303,-2017
510,252,13037,1789,2042,-1841
196,-538,13308,1279,1787,-1609
176,-1044,13021,1022,1020,-1377
-371,120,12782,1020,767,-937
-861,-435,13053,510,510,-694
56,-447,12782,255,-509,-481
-917,-387,13021,62,-837,160
-626,104,12527,-457,-1323,255
-925,40,12276,-1066,-2182,255
-499,510,12495,-1385,-2501,510
-291,510,12527,-1953,-2817,510
255,510,12750,-2327,-3682,510
-570,-638,12495,-2519,-3985,767
-331,510,12798,-2805,-4363,767
168,172,14328,-3218,-4425,767
-885,510,15308,-4017,-4049,255
-2088,2040,16360,-5089,-3441,-375
-1252,1020,16093,-5324,-3092,-285
-311,-263,16639,-5379,-2487,61
-841,510,16073,-5122,-2216,176
68,-511,16364,-4555,-1905,143
-447,-339,16575,-4268,-1315,255
255,-518,15587,-3985,-1059,168
208,-1028,16085,-3188,-650,166
255,-411,15571,-2821,-570,219
1279,-327,15814,-2193,-443,81
68,236,15324,-1857,89,58
510,-259,15846,-1483,231,78
-287,208,15085,-1068,255,115
48,-391,15061,-645,255,230
204,-403,15356,-447,511,71
510,255,15093,-327,511,-275
510,510,15300,131,511,-509
510,252,15085,510,765,-945
1020,1020,15101,1022,1021,-1497
510,765,16109,1535,1279,-1641
1785,255,15822,2303,1279,-1642
765,-654,15316,2559,1530,-1577
248,-538,14296,2807,1531,-1593
510,-415,14312,2559,1531,-1457
255,255,14591,2813,1275,-1395
144,-279,15069,2813,1275,-1218
255,765,14838,2807,1279,-1186
132,-323,15563,3063,1530,-1195
765,60,16073,3578,1785,-1371
765,1020,16065,4090,2040,-1483
255,1789,16324,4590,2303,-1633
765,765,15846,5610,2551,-1785
765,510,15830,5881,3069,-1977
765,510,16109,6391,3319,-2197
255,765,15838,7166,3315,-2225
-399,200,15316,7159,3582,-2245
510,-989,14846,7141,3575,-2117
52,-331,14567,7142,3319,-1977
-574,-295,14280,7151,2559,-1937
-371,-738,14559,7142,2295,-1857
255,-323,14316,7159,1535,-1881
255,-1108,14543,7164,1275,-1761
255,-1212,14061,6887,1275,-1705
8,-1610,15571,6901,1022,-1634
60,-678,15300,6885,767,-1497
-1236,208,15061,6909,255,-1219
-1738,765,16639,6893,-805,-730
-1738,765,16639,6893,-805,-589
-1355,128,16830,6903,-1089,-589
-1009,1020,17663,7158,-1473,-409
-1021,765,18364,7395,-2355,2
-881,1020,19133,7674,-2773,149
184,1020,19189,8447,-3122,167
1020,1789,19902,8670,-3921,242
510,1789,21165,8957,-4140,26
2044,2813,21500,9981,-4519,-359
1275,2295,22010,10463,-4961,-517
1530,3327,22460,11735,-5101,-610
765,2558,22189,12527,-5101,-705
1275,2558,22249,13263,-5057,-841
1279,3323,22775,14302,-4929,-1001
255,3837,22974,15350,-5061,-853
765,2813,21934,15851,-5281,-793
-849,3068,22269,16575,-5673,-505
-526,2040,21484,17663,-6403,48
